Timestamp,ax,ay,az,gx,gy,gz,roll,pitch,yaw
2026-09-28 19:26:58.232244480,0.1292783203125,-0.16518896484374998,10.2034111328125,0.0,0.0,0.0,359.26142010367676,359.53094783838975,14.536983137153527
2026-09-28 19:26:58.232244480,0.10533789062499999,-0.1675830078125,10.24889794921875,0.0,0.0,0.0010652644360316954,359.2613783833988,359.53117205944403,14.53708463800104
2026-09-28 19:26:58.247969280,0.08618554687499999,-0.201099609375,10.1651064453125,0.0,-0.0010652644360316954,0.0,359.26083844060713,359.5308157285359,14.537195416145433
2026-09-28 19:26:58.247969280,0.1292783203125,-0.21306982421874998,10.162712402343749,0.0,0.0,0.0,359.25975574038006,359.53059975830956,14.537003110218222
2026-09-28 19:26:58.247969280,0.13406640625,-0.17715917968749997,10.21538134765625,-0.0010652644360316954,0.0,0.0,359.25828903712267,359.5303234987816,14.53711005633992
2026-09-28 19:26:58.247969280,0.1005498046875,-0.18434130859374998,10.263262207031248,0.0,0.0,0.0,359.25777233411355,359.5297884303605,14.536610572143255
2026-09-28 19:26:58.247969280,0.08379150390625,-0.17955322265624998,10.196229003906248,0.0,0.0010652644360316954,0.0010652644360316954,359.2572906907616,359.53006250557763,14.537018138540141
2026-09-28 19:26:58.247969280,0.10533789062499999,-0.20349365234374997,10.212987304687498,0.0,0.0,0.0,359.2566093197736,359.53009021680055,14.537126095700708
2026-09-28 19:26:58.263604992,0.0813974609375,-0.17237109374999998,10.179470703124998,0.0,0.0,0.0010652644360316954,359.2563408977452,359.5297260495607,14.53754235679683
2026-09-28 19:26:58.263604992,0.08379150390625,-0.18434130859374998,10.20819921875,0.0,0.0,0.0,359.2559514650483,359.5295147068187,14.537651951689202
2026-09-28 19:26:58.263604992,0.16518896484374998,-0.19391748046875,10.16989453125,0.0,0.0,-0.0010652644360316954,359.25566598048607,359.5294585944745,14.537148954682689
2026-09-28 19:26:58.263604992,0.11252001953124999,-0.19870556640624998,10.189046874999999,0.0,0.0,0.0,359.2555061654858,359.5290465656441,14.536950036795787
2026-09-28 19:26:58.263604992,0.12688427734375,-0.1963115234375,10.212987304687498,0.0,0.0,0.0,359.25461887491366,359.5290650274308,14.53705725478351
2026-09-28 19:26:58.263604992,0.13646044921875,-0.17715917968749997,10.19144091796875,0.0,0.0,0.0010652644360316954,359.2541560159931,359.5280355101697,14.537174054117724
2026-09-28 19:26:58.279220224,0.10294384765624999,-0.15321875,10.21538134765625,0.0,0.0,0.0010652644360316954,359.25388604341487,359.52718720059426,14.537899519427096
2026-09-28 19:26:58.279220224,0.12688427734375,-0.17955322265624998,10.18186474609375,0.0,0.0,0.0,359.25355885995737,359.5269653394238,14.537703545785734
2026-09-28 19:26:58.279220224,0.11252001953124999,-0.20828173828125,10.18665283203125,0.0,0.0,0.0,359.25325826829544,359.52641227429814,14.537509903329468
2026-09-28 19:26:58.279220224,0.09336767578124999,-0.1484306640625,10.198623046875,0.0,0.0,0.0,359.2525705329491,359.52652590690496,14.537617941833282
2026-09-28 19:26:58.294862592,0.11252001953124999,-0.21785791015624997,10.2034111328125,0.0,0.0,0.0,359.2523822222129,359.52669408175024,14.53680905622177
2026-09-28 19:26:58.310467072,0.15321875,-0.17955322265624998,10.189046874999999,0.0,0.0,0.0,359.2519564272478,359.5265417008682,14.536612446083527
2026-09-28 19:26:58.326097664,0.124490234375,-0.19391748046875,10.19144091796875,-0.0010652644360316954,-0.0010652644360316954,0.0,359.2507540729849,359.52552954495616,14.536727673015013
2026-09-28 19:26:58.341738752,0.09336767578124999,-0.19870556640624998,10.189046874999999,0.0,-0.0010652644360316954,0.0,359.2499948637707,359.52514372475287,14.536837789994967
2026-09-28 19:26:58.341738752,0.10533789062499999,-0.19870556640624998,10.229745605468748,0.0,0.0010652644360316954,0.0,359.2494048842735,359.52538430749934,14.537246253022444
2026-09-28 19:26:58.341738752,0.14124853515625,-0.19152343749999998,10.150742187499999,0.0,0.0,0.0,359.2485688376922,359.52532976389034,14.53735559170021
2026-09-28 19:26:58.341738752,0.10773193359375,-0.18912939453125,10.17707666015625,0.0,0.0,0.0,359.24812600800317,359.52478182738207,14.53746819290432
2026-09-28 19:26:58.357359104,0.1149140625,-0.201099609375,10.2321396484375,0.0,0.0,0.0,359.2472989660218,359.52469825631977,14.537574896872668
2026-09-28 19:26:58.357359104,0.13646044921875,-0.181947265625,10.198623046875,0.0,-0.0010652644360316954,0.0,359.2465482609264,359.524341285447,14.537687585628905
2026-09-28 19:26:58.357359104,0.09336767578124999,-0.201099609375,10.21059326171875,0.0,0.0,0.0,359.24594163226504,359.52349288613533,14.537803049451465
2026-09-28 19:26:58.372978688,0.08379150390625,-0.20828173828125,10.184258789062499,0.0,0.0,0.0010652644360316954,359.24527638350287,359.52339518774056,14.538521356870136
2026-09-28 19:26:58.372978688,0.13885449218749998,-0.162794921875,10.18186474609375,0.0,0.0,0.0,359.24520420869123,359.52294166202955,14.538328375754537
2026-09-28 19:26:58.372978688,0.1005498046875,-0.18912939453125,10.18665283203125,0.0,0.0,0.0,359.2447477842334,359.52216551623627,14.537832456192156
2026-09-28 19:26:58.388603904,0.1005498046875,-0.20828173828125,10.21538134765625,0.0,0.0,0.0010652644360316954,359.24402708256343,359.5214470300127,14.538254016529633
2026-09-28 19:26:58.388603904,0.11252001953124999,-0.19152343749999998,10.162712402343749,0.0,-0.0010652644360316954,0.0,359.24396685213213,359.5208464769339,14.538675289511781
2026-09-28 19:26:58.388603904,0.12209619140624998,-0.19391748046875,10.236927734375,0.0,0.0,0.0,359.24348197566144,359.52035584152645,14.538480680978198
2026-09-28 19:26:58.388603904,0.09576171874999999,-0.18434130859374998,10.2034111328125,0.0,0.0,0.0,359.24298191763154,359.51993847363485,14.538286171993086
2026-09-28 19:26:58.388603904,0.09815576171875,-0.23461621093749999,10.25368603515625,0.0,0.0,0.0,359.24250642442166,359.5194720932292,14.538403038525496
2026-09-28 19:26:58.404232960,0.11012597656249999,-0.19152343749999998,10.21059326171875,0.0,0.0,0.0010652644360316954,359.24161745781157,359.51881865682435,14.538525048989865
2026-09-28 19:26:58.419856384,0.13167236328124998,-0.201099609375,10.1651064453125,0.0,0.0,0.0,359.2415354687288,359.51855514497726,14.538942419638554
2026-09-28 19:26:58.419856384,0.12209619140624998,-0.17476513671875,10.155530273437499,0.0,0.0010652644360316954,0.0,359.2408589235502,359.5184282756345,14.538745445801565
2026-09-28 19:26:58.419856384,0.11970214843749999,-0.16997705078124997,10.1651064453125,0.0,0.0,0.0,359.2393703843439,359.51871005255765,14.53854339855985
2026-09-28 19:26:58.419856384,0.11970214843749999,-0.181947265625,10.184258789062499,0.0,0.0,0.0,359.2390794238381,359.51818880057874,14.538654801040703
2026-09-28 19:26:58.419856384,0.07900341796874999,-0.201099609375,10.179470703124998,0.0,-0.0010652644360316954,0.0,359.2381195106102,359.51790539246076,14.538461672607005
2026-09-28 19:26:58.435371520,0.10294384765624999,-0.19152343749999998,10.2321396484375,0.0,-0.0010652644360316954,0.0,359.23719936044085,359.51749388813124,14.538577315089007
2026-09-28 19:26:58.435371520,0.10294384765624999,-0.18673535156249998,10.205805175781249,0.0,0.0,0.0,359.23652256752445,359.5169336094922,14.538388421446788
2026-09-28 19:26:58.435371520,0.09576171874999999,-0.19152343749999998,10.198623046875,0.0,0.0010652644360316954,0.0,359.2362129174742,359.5176969960149,14.53818276145088
2026-09-28 19:26:58.435371520,0.0909736328125,-0.1963115234375,10.179470703124998,0.0,0.0,-0.0010652644360316954,359.2358592569126,359.51780925701473,14.537677748403137
2026-09-28 19:26:58.435371520,0.1005498046875,-0.17715917968749997,10.1651064453125,0.0,0.0010652644360316954,0.0010652644360316954,359.23549750239414,359.518277176956,14.538086768701465
2026-09-28 19:26:58.435371520,0.15800683593749998,-0.17955322265624998,10.19144091796875,0.0,0.0,0.0,359.2352677365701,359.51775119714404,14.537892570223555
2026-09-28 19:26:58.435371520,0.1149140625,-0.19870556640624998,10.18186474609375,0.0,0.0,0.0,359.2350455753476,359.5170643290882,14.53800752374037
2026-09-28 19:26:58.450993408,0.10294384765624999,-0.201099609375,10.17707666015625,0.0,0.0,0.0,359.23470335506795,359.51723444411124,14.537806198019025
2026-09-28 19:26:58.450993408,0.11970214843749999,-0.20828173828125,10.179470703124998,0.0,0.0,0.0,359.2336577364816,359.5171772185564,14.537609752072418
2026-09-28 19:26:58.450993408,0.09576171874999999,-0.19870556640624998,10.234533691406249,0.0,0.0,0.0010652644360316954,359.2330096528333,359.5165276734098,14.537725740837274
2026-09-28 19:26:58.450993408,0.10773193359375,-0.15082470703124998,10.1746826171875,0.0,0.0,0.0,359.23265779053827,359.51630576439186,14.537837692077778
2026-09-28 19:26:58.450993408,0.11730810546874999,-0.201099609375,10.11004345703125,0.0,0.0,0.0,359.23249794970366,359.51543093365416,14.53794951724285
2026-09-28 19:26:58.466619392,0.1149140625,-0.17715917968749997,10.184258789062499,0.0,-0.0010652644360316954,0.0,359.2315923528553,359.51456849214065,14.538065055719171
2026-09-28 19:26:58.466619392,0.09576171874999999,-0.19152343749999998,10.179470703124998,0.0,0.0,0.0,359.23148000157767,359.51389903418567,14.53817904275305
2026-09-28 19:26:58.466619392,0.11252001953124999,-0.201099609375,10.217775390624999,0.0,0.0,0.0010652644360316954,359.23111706691554,359.51340878232645,14.538600379435877
2026-09-28 19:26:58.466619392,0.1292783203125,-0.17715917968749997,10.1938349609375,0.0,-0.0010652644360316954,0.0,359.23011849410346,359.51278156642616,14.538716770962264
2026-09-28 19:26:58.466619392,0.1292783203125,-0.21785791015624997,10.2417158203125,0.0,0.0010652644360316954,0.0,359.2295266990197,359.51289490281306,14.538819987128301
2026-09-28 19:26:58.466619392,0.11252001953124999,-0.18912939453125,10.201017089843749,0.0,-0.0010652644360316954,0.0,359.22903855496793,359.51258903751574,14.538933156956341
2026-09-28 19:26:58.466619392,0.13167236328124998,-0.1675830078125,10.22016943359375,0.0,0.0,0.0,359.2288324925582,359.5122302427944,14.539349099658882
2026-09-28 19:26:58.466619392,0.14124853515625,-0.19152343749999998,10.222563476562499,0.0,0.0,0.0,359.2285407403816,359.5119974772899,14.539152927667962
2026-09-28 19:26:58.466619392,0.13646044921875,-0.17237109374999998,10.19144091796875,0.0,-0.0010652644360316954,0.0,359.22769544380463,359.5113218769736,14.539268036180882
2026-09-28 19:26:58.466619392,0.07900341796874999,-0.19391748046875,10.236927734375,-0.0010652644360316954,0.0,0.0010652644360316954,359.2266946168853,359.5110872729608,14.539373864740545
2026-09-28 19:26:58.466619392,0.14124853515625,-0.18912939453125,10.150742187499999,0.0,0.0,0.0,359.2261311399194,359.5112156840676,14.539175918370015
2026-09-28 19:26:58.466619392,0.10773193359375,-0.18434130859374998,10.167500488281249,0.0,0.0,0.0,359.22561157595476,359.5109141542886,14.538977647995639
2026-09-28 19:26:58.477014784,0.0909736328125,-0.22025195312499998,10.198623046875,0.0,-0.0010652644360316954,0.0,359.22471497340376,359.5104439673878,14.538788149930463
2026-09-28 19:26:58.477595904,0.12209619140624998,-0.21067578124999997,10.2321396484375,0.0,0.0,0.0,359.2234487679208,359.5103990446015,14.538590886397326
2026-09-28 19:26:58.477595904,0.11730810546874999,-0.19870556640624998,10.236927734375,0.0,0.0,0.0,359.22228178762765,359.50985356246514,14.538396997913116
2026-09-28 19:26:58.477595904,0.14364257812499998,-0.21785791015624997,10.1938349609375,0.0,-0.0010652644360316954,0.0010652644360316954,359.2211278296021,359.5093850054962,14.538813287308452
2026-09-28 19:26:58.477595904,0.13167236328124998,-0.17237109374999998,10.21538134765625,0.0,0.0010652644360316954,0.0,359.22078586017267,359.5097287994683,14.53860766871767
2026-09-28 19:26:58.483176192,0.07182128906249999,-0.19391748046875,10.157924316406248,0.0,-0.0010652644360316954,0.0,359.2203910398765,359.50930848452333,14.538717468166634
2026-09-28 19:26:58.493299200,0.11970214843749999,-0.19391748046875,10.16989453125,0.0,-0.0010652644360316954,0.0,359.21983034337933,359.50881693968296,14.538832851801459
2026-09-28 19:26:58.508960512,0.11012597656249999,-0.1963115234375,10.172288574218749,-0.0010652644360316954,0.0,0.0010652644360316954,359.2183981351852,359.50908437169704,14.538935531155808
2026-09-28 19:26:58.508960512,0.1292783203125,-0.16518896484374998,10.229745605468748,0.0,0.0,0.0010652644360316954,359.2175394556155,359.50937063366024,14.539343570656982
2026-09-28 19:26:58.520223744,0.124490234375,-0.21067578124999997,10.16989453125,0.0,0.0010652644360316954,0.0,359.21749823036913,359.5099469445488,14.53944045218552
2026-09-28 19:26:58.520223744,0.13406640625,-0.1963115234375,10.14834814453125,0.0,0.0,0.0,359.2164846923432,359.5103462700902,14.539544608364574
2026-09-28 19:26:58.555841536,0.10773193359375,-0.18673535156249998,10.15313623046875,0.0,0.0,0.0,359.21581304550756,359.51030519706615,14.539648417313197
2026-09-28 19:26:58.569846016,0.09815576171875,-0.1675830078125,10.20819921875,0.0,0.0010652644360316954,0.0,359.21531868619394,359.511015390366,14.539441410563567
2026-09-28 19:26:58.569846016,0.13646044921875,-0.20349365234374997,10.272838378906249,0.0,0.0,0.0,359.21493629155265,359.5117143080155,14.539233452832383
2026-09-28 19:26:58.569846016,0.1292783203125,-0.19870556640624998,10.22495751953125,0.0010652644360316954,0.0021305288720633907,0.0,359.21454408812934,359.5123061116099,14.539635955488684
2026-09-28 19:26:58.605526016,0.14603662109374999,-0.19870556640624998,10.167500488281249,0.0,0.0,0.0010652644360316954,359.21274095202665,359.5131313276306,14.540035774573694
2026-09-28 19:26:58.615319040,0.055062988281249996,-0.16997705078124997,10.16989453125,0.0,0.0010652644360316954,-0.0010652644360316954,359.21142260053017,359.5138733256655,14.53952112731201
2026-09-28 19:26:58.615319040,0.13646044921875,-0.19152343749999998,10.18186474609375,0.0,0.0,0.0,359.21037841950493,359.5152643920346,14.539309347795363
2026-09-28 19:26:58.615319040,0.09576171874999999,-0.15561279296875,10.205805175781249,0.0,0.0,0.0010652644360316954,359.2093375199675,359.51557378246457,14.539406836491054
2026-09-28 19:26:58.629436416,0.11012597656249999,-0.17476513671875,10.14356005859375,0.0,0.0010652644360316954,0.0,359.2086070513012,359.5165279322467,14.539194949842038
2026-09-28 19:26:58.629436416,0.14364257812499998,-0.18434130859374998,10.129195800781249,0.0,0.0,0.0,359.2077492402382,359.51678462455646,14.538992456633402
2026-09-28 19:26:58.645183232,0.14364257812499998,-0.17237109374999998,10.15313623046875,0.0,0.0,0.0,359.2068694297652,359.5170426147561,14.538790268537408
2026-09-28 19:26:58.660797184,0.12688427734375,-0.13406640625,10.2034111328125,0.0,0.0,0.0010652644360316954,359.2062946781238,359.51716584399435,14.539195740780341
2026-09-28 19:26:58.660797184,0.11252001953124999,-0.19870556640624998,10.222563476562499,0.0,0.0010652644360316954,0.0,359.2066171243281,359.51770628500344,14.538982638710392
2026-09-28 19:26:58.660797184,0.08379150390625,-0.17955322265624998,10.239321777343749,0.0,-0.0010652644360316954,0.0,359.20552367699315,359.51721823815905,14.539095676574139
2026-09-28 19:26:58.676423680,0.12209619140624998,-0.19391748046875,10.19144091796875,0.0,0.0,0.0,359.2052632315785,359.5176884058685,14.539503509740682
2026-09-28 19:26:58.692049408,0.0909736328125,-0.2154638671875,10.1746826171875,0.0,0.0,0.0,359.2046721068751,359.51721117176754,14.539614882776316
2026-09-28 19:26:58.692049408,0.09336767578124999,-0.22025195312499998,10.277626464843749,0.0,0.0,0.0,359.2043463600987,359.51679475643977,14.539421478499277
2026-09-28 19:26:58.707678464,0.07182128906249999,-0.19152343749999998,10.1938349609375,0.0,0.0,0.0010652644360316954,359.2035513907345,359.51664704846206,14.539837207287304
2026-09-28 19:26:58.723292928,0.09336767578124999,-0.181947265625,10.14834814453125,-0.0010652644360316954,0.0,0.0,359.2023919273703,359.51684088598444,14.53963897189084
2026-09-28 19:26:58.723292928,0.16040087890625,-0.162794921875,10.251291992187499,0.0,0.0,0.0,359.20216435275825,359.5167966848607,14.539444762936622
2026-09-28 19:26:58.741436928,0.08857958984374999,-0.19391748046875,10.24889794921875,0.0,0.0,0.0,359.20154441709076,359.51689511679734,14.539545308470698
2026-09-28 19:26:58.747292416,0.124490234375,-0.18673535156249998,10.1746826171875,0.0,0.0,0.0,359.2004989008383,359.51703209784006,14.539040940566748
2026-09-28 19:26:58.761492480,0.11012597656249999,-0.201099609375,10.160318359375,0.0,0.0,0.0,359.1995720897757,359.51719999313184,14.53883902080551
2026-09-28 19:26:58.770596352,0.10294384765624999,-0.18434130859374998,10.22016943359375,0.0010652644360316954,0.0010652644360316954,0.0,359.1995674855672,359.5174083569504,14.538942160252866
2026-09-28 19:26:58.786344448,0.10533789062499999,-0.21306982421874998,10.2034111328125,-0.0010652644360316954,0.0,0.0,359.1973532215465,359.51754639992214,14.538548951195622
2026-09-28 19:26:58.801952512,0.124490234375,-0.181947265625,10.18186474609375,0.0,0.0,0.0,359.1968082481592,359.5172381853343,14.538354920056149
2026-09-28 19:26:58.801952512,0.09815576171875,-0.17715917968749997,10.20819921875,0.0,0.0,-0.0010652644360316954,359.196490245005,359.51719839332134,14.537544426074605
2026-09-28 19:26:58.817596160,0.1149140625,-0.19870556640624998,10.20819921875,0.0,0.0,0.0,359.1958334094277,359.51752544936375,14.53703512328805
2026-09-28 19:26:58.817596160,0.12209619140624998,-0.18673535156249998,10.14834814453125,0.0,0.0,0.0,359.1951459832688,359.5176023434874,14.53683545519481
2026-09-28 19:26:58.833242880,0.0622451171875,-0.20828173828125,10.167500488281249,0.0010652644360316954,0.0,0.0,359.1952464425473,359.5173214912163,14.5369461638681
2026-09-28 19:26:58.864460800,0.1005498046875,-0.23222216796874998,10.184258789062499,0.0,0.0,0.0,359.1947101585819,359.5175310798902,14.537052752623289
2026-09-28 19:26:58.864460800,0.1484306640625,-0.21067578124999997,10.18186474609375,0.0,0.0,0.0,359.1935839442555,359.51731366164756,14.536861010984076
2026-09-28 19:26:58.864460800,0.11730810546874999,-0.17715917968749997,10.1938349609375,0.0,0.0,0.0,359.1926191371207,359.5170447433406,14.536663672066116
2026-09-28 19:26:58.880744960,0.124490234375,-0.20349365234374997,10.284808593749998,0.0,0.0,0.0,359.19258526115993,359.51635235333003,14.53647220108402
2026-09-28 19:26:58.888096768,0.11012597656249999,-0.21785791015624997,10.22016943359375,0.0,0.0,0.0010652644360316954,359.19237182348775,359.5160018958597,14.536583109084214
2026-09-28 19:26:58.896502784,0.14603662109374999,-0.24898046875,10.162712402343749,0.0,-0.0010652644360316954,0.0,359.19161969864723,359.5157258425632,14.536695898391514
2026-09-28 19:26:58.927864320,0.10533789062499999,-0.21067578124999997,10.22016943359375,-0.0010652644360316954,0.0,0.0,359.1902973961065,359.51521157431534,14.536810944753299
2026-09-28 19:26:58.927864320,0.1149140625,-0.17955322265624998,10.17707666015625,0.0,-0.0010652644360316954,-0.0010652644360316954,359.1899308852363,359.51403022608804,14.5363257231825
2026-09-28 19:26:58.943489792,0.10294384765624999,-0.201099609375,10.172288574218749,0.0,0.0010652644360316954,0.0,359.18965447652744,359.51430104661443,14.536120883677224
2026-09-28 19:26:58.974735104,0.1149140625,-0.17476513671875,10.150742187499999,0.0,-0.0010652644360316954,0.0,359.1898299725227,359.51339628978974,14.535934609945485
2026-09-28 19:26:58.990368000,0.11012597656249999,-0.19870556640624998,10.1938349609375,0.0,-0.0021305288720633907,0.0,359.1891313171244,359.5126250508435,14.536358188603407
2026-09-28 19:26:58.990368000,0.09576171874999999,-0.20828173828125,10.20819921875,0.0,0.0,0.0,359.18892892696465,359.5124354319982,14.536468906363469
2026-09-28 19:26:58.990368000,0.10294384765624999,-0.22504003906249997,10.198623046875,0.0,0.0,0.0,359.1885846315493,359.5119092776157,14.536890315003237
2026-09-28 19:26:58.990368000,0.11970214843749999,-0.17476513671875,10.222563476562499,0.0,-0.0021305288720633907,0.0,359.1877484164619,359.5110658704925,14.53670741634975
2026-09-28 19:26:58.990368000,0.10533789062499999,-0.17955322265624998,10.201017089843749,0.0,0.0,0.0010652644360316954,359.18740622856177,359.5109482680984,14.536812508341644
2026-09-28 19:26:58.990368000,0.08857958984374999,-0.1675830078125,10.198623046875,0.0,0.0,0.0,359.187101369294,359.5107887228617,14.536924172312299
2026-09-28 19:26:59.016263424,0.11730810546874999,-0.1484306640625,10.25368603515625,0.0,-0.0010652644360316954,0.0,359.1867383531068,359.5104328955936,14.537343206484563
2026-09-28 19:26:59.031372544,0.11012597656249999,-0.15082470703124998,10.196229003906248,0.0,0.0,0.0,359.1867853074653,359.51020037267494,14.536841757699943
2026-09-28 19:26:59.033052416,0.13406640625,-0.201099609375,10.198623046875,0.0,0.0,0.0,359.1868412669758,359.5102688032663,14.536946059021929
2026-09-28 19:26:59.048599552,0.0813974609375,-0.19152343749999998,10.11004345703125,0.0,0.0,0.0,359.18595648712267,359.5102051259576,14.537053126336025
2026-09-28 19:26:59.066243072,0.09576171874999999,-0.162794921875,10.15313623046875,-0.0010652644360316954,-0.0010652644360316954,0.0,359.1845244035485,359.5099634455131,14.537469193039177
2026-09-28 19:26:59.066243072,0.1005498046875,-0.21306982421874998,10.198623046875,0.0,-0.0010652644360316954,0.0,359.1841985428771,359.5095080700889,14.537277590361223
2026-09-28 19:26:59.066243072,0.10294384765624999,-0.19870556640624998,10.162712402343749,0.0,0.0,0.0,359.18403212422027,359.5096955712665,14.537383757230689
2026-09-28 19:26:59.082078720,0.13406640625,-0.17237109374999998,10.138771972656249,0.0,0.0,0.0,359.1837340613441,359.5095910025001,14.53749529916286
2026-09-28 19:26:59.082078720,0.1484306640625,-0.19391748046875,10.2034111328125,0.0,0.0,0.0,359.1837264945887,359.50871958516353,14.536998608706421
2026-09-28 19:26:59.098761472,0.11970214843749999,-0.17715917968749997,10.157924316406248,0.0,0.0,0.0010652644360316954,359.1830966560037,359.50882216790325,14.537406932371741
2026-09-28 19:26:59.115456000,0.09815576171875,-0.15561279296875,10.189046874999999,0.0,0.0,0.0,359.1830003712907,359.50822412005573,14.537216096264698
2026-09-28 19:26:59.132018176,0.0813974609375,-0.18434130859374998,10.117225585937499,0.0,-0.0010652644360316954,0.0,359.1823829542181,359.50802246993436,14.537020096977917
2026-09-28 19:26:59.143628800,0.10533789062499999,-0.201099609375,10.2034111328125,0.0,-0.0010652644360316954,0.0,359.1819828773422,359.5074960142247,14.537439475502845
2026-09-28 19:26:59.157374720,0.11252001953124999,-0.23222216796874998,10.17707666015625,0.0,0.0,0.0010652644360316954,359.1809596925693,359.50795306682465,14.537543503160618
2026-09-28 19:26:59.158134784,0.10773193359375,-0.17955322265624998,10.20819921875,0.0,0.0,0.0010652644360316954,359.1798439189097,359.5073398462692,14.537966427732618
2026-09-28 19:26:59.158134784,0.11012597656249999,-0.201099609375,10.1651064453125,0.0,0.0,0.0,359.1795351466925,359.5072794511489,14.537766014377244
2026-09-28 19:26:59.165412352,0.10773193359375,-0.19870556640624998,10.2321396484375,0.0,0.0,0.0,359.17871467200155,359.50739177676843,14.53787249459519
2026-09-28 19:26:59.182158080,0.07182128906249999,-0.22504003906249997,10.205805175781249,0.0,0.0,0.0,359.17831630369335,359.50727156090346,14.537977921254777
2026-09-28 19:26:59.215455488,0.0813974609375,-0.201099609375,10.201017089843749,0.0,0.0,0.0,359.177416111903,359.50778585465633,14.538385871791236
2026-09-28 19:26:59.215455488,0.12209619140624998,-0.20588769531249998,10.167500488281249,0.0,-0.0010652644360316954,0.0,359.17660228843295,359.5076403524994,14.538191559435793
2026-09-28 19:26:59.232122624,0.124490234375,-0.1675830078125,10.196229003906248,0.0,0.0,0.0,359.1760551435054,359.50713785527034,14.537997636056119
2026-09-28 19:26:59.232122624,0.0909736328125,-0.21067578124999997,10.1938349609375,0.0,0.0,0.0,359.1761169194908,359.50634994263316,14.538110572653416
2026-09-28 19:26:59.232122624,0.11012597656249999,-0.201099609375,10.184258789062499,0.0,0.0010652644360316954,0.0,359.1757033367163,359.5062608630935,14.537913736396952
2026-09-28 19:26:59.265625088,0.09815576171875,-0.21067578124999997,10.20819921875,0.0,0.0,0.0,359.1756788616624,359.50626084275393,14.537408519625943
2026-09-28 19:26:59.265625088,0.11252001953124999,-0.21306982421874998,10.22016943359375,0.0,0.0,0.0,359.1751165676583,359.50638036496,14.53782055228213
2026-09-28 19:26:59.282005248,0.11730810546874999,-0.18434130859374998,10.21059326171875,0.0010652644360316954,0.0,0.0,359.17512092687747,359.50637354475936,14.537622731998363
2026-09-28 19:26:59.315318528,0.15561279296875,-0.16518896484374998,10.155530273437499,0.0,0.0,0.0,359.17492417486477,359.5066842271727,14.537419613194366
2026-09-28 19:26:59.332066816,0.1292783203125,-0.18434130859374998,10.172288574218749,0.0,0.0,0.0,359.17433223587597,359.50639771792106,14.537524131574733
2026-09-28 19:26:59.332066816,0.10533789062499999,-0.18434130859374998,10.155530273437499,0.0,-0.0021305288720633907,0.0010652644360316954,359.1737996157835,359.50556988331607,14.537644046715249
2026-09-28 19:26:59.341175808,0.1149140625,-0.23940429687499998,10.16989453125,0.0,0.0,0.0,359.1730836506088,359.50497714195456,14.53745335689854
2026-09-28 19:26:59.341175808,0.11730810546874999,-0.21785791015624997,10.205805175781249,0.0,0.0,0.0,359.1718757836009,359.5052911939456,14.53755612278929
2026-09-28 19:26:59.341175808,0.1149140625,-0.181947265625,10.184258789062499,0.0,0.0,0.0,359.1716522615256,359.5049689405045,14.537667179868473
2026-09-28 19:26:59.341175808,0.09336767578124999,-0.19152343749999998,10.229745605468748,0.0,-0.0010652644360316954,0.0,359.1713802243276,359.50423952506225,14.537780364850027
2026-09-28 19:26:59.357056768,0.13646044921875,-0.19391748046875,10.15313623046875,0.0,0.0,0.0,359.1707357272483,359.5042393529935,14.537885308180241
2026-09-28 19:26:59.357056768,0.10773193359375,-0.19391748046875,10.201017089843749,0.0,0.0,0.0010652644360316954,359.17011729049676,359.50418539830207,14.537990118316262
2026-09-28 19:26:59.357056768,0.10533789062499999,-0.201099609375,10.179470703124998,0.0,0.0,0.0,359.169941807896,359.50383582458943,14.537795579126504
2026-09-28 19:26:59.381956352,0.11730810546874999,-0.20828173828125,10.14356005859375,0.0,0.0,0.0,359.16951493914115,359.50310992238286,14.537300068073641
2026-09-28 19:26:59.398761472,0.09336767578124999,-0.21067578124999997,10.1746826171875,0.0,0.0,0.0,359.1694275499343,359.5024145328377,14.537109287317845
2026-09-28 19:26:59.437005312,0.12688427734375,-0.19152343749999998,10.201017089843749,0.0,-0.0021305288720633907,0.0,359.1687759098479,359.5014524244936,14.536617461874375
2026-09-28 19:26:59.466813184,0.11970214843749999,-0.20349365234374997,10.1651064453125,0.0,0.0,0.0,359.168575980678,359.50047802068246,14.536737261198034
2026-09-28 19:26:59.467275776,0.10294384765624999,-0.17237109374999998,10.196229003906248,0.0,0.0,0.0010652644360316954,359.16807711212977,359.5000771549845,14.537153271477658
2026-09-28 19:26:59.467275776,0.09815576171875,-0.181947265625,10.1363779296875,0.0,0.0,0.0,359.1674795623936,359.50015910699557,14.536952769182003
2026-09-28 19:26:59.467275776,0.15321875,-0.1963115234375,10.236927734375,0.0,-0.0010652644360316954,0.0,359.1668790410818,359.49990675151747,14.53675672534945
2026-09-28 19:26:59.467275776,0.1675830078125,-0.201099609375,10.18665283203125,0.0,0.0,0.0,359.1666083829312,359.49943600937956,14.536563132072459
2026-09-28 19:26:59.467275776,0.09576171874999999,-0.1963115234375,10.157924316406248,0.0,0.0,0.0,359.16651834262393,359.4991022953462,14.536668642853796
2026-09-28 19:26:59.467275776,0.12688427734375,-0.18912939453125,10.196229003906248,0.0,0.0,0.0,359.16578848382187,359.49895271727576,14.53616865954128
2026-09-28 19:26:59.467275776,0.11012597656249999,-0.18912939453125,10.196229003906248,0.0,0.0,0.0010652644360316954,359.16517898227664,359.49849012048134,14.536585649298416
2026-09-28 19:26:59.477383680,0.14603662109374999,-0.17955322265624998,10.172288574218749,0.0,-0.0010652644360316954,0.0,359.1644295375999,359.49785999384693,14.536395429027998
2026-09-28 19:26:59.509428480,0.11252001953124999,-0.1963115234375,10.18186474609375,-0.0010652644360316954,-0.0010652644360316954,0.0,359.16352954500536,359.49702215483904,14.536508901050071
2026-09-28 19:26:59.532006912,0.10294384765624999,-0.16997705078124997,10.15313623046875,0.0,0.0,0.0,359.16298114227857,359.496646209153,14.536315078801396
2026-09-28 19:26:59.557392384,0.0909736328125,-0.1675830078125,10.1363779296875,0.0,-0.0010652644360316954,0.0,359.1627092335979,359.4962087838088,14.536428425752066
2026-09-28 19:26:59.557392384,0.1484306640625,-0.23940429687499998,10.1746826171875,0.0,0.0,0.0,359.16213411124727,359.49650198330414,14.536532892520636
2026-09-28 19:26:59.596724224,0.08379150390625,-0.1963115234375,10.18186474609375,-0.0010652644360316954,0.0,0.0,359.1607521451424,359.4964315618049,14.536336612123698
2026-09-28 19:26:59.596724224,0.10294384765624999,-0.201099609375,10.18665283203125,0.0,-0.0010652644360316954,0.0,359.1602894130562,359.49633496165427,14.53614208105973
2026-09-28 19:26:59.615569664,0.10773193359375,-0.17955322265624998,10.217775390624999,0.0,0.0010652644360316954,0.0,359.15963303411564,359.49695142079634,14.53563074525922
2026-09-28 19:26:59.615569664,0.1675830078125,-0.20828173828125,10.1746826171875,0.0,-0.0010652644360316954,0.0010652644360316954,359.1593550191781,359.4965463234598,14.536049314140685
2026-09-28 19:26:59.615569664,0.1149140625,-0.201099609375,10.201017089843749,0.0,0.0,0.0,359.1583892838294,359.49607104915384,14.536161622433308
2026-09-28 19:26:59.615569664,0.13167236328124998,-0.1963115234375,10.21538134765625,0.0,0.0,0.0,359.15760347889267,359.4963756834681,14.535958340129465
2026-09-28 19:26:59.615569664,0.07182128906249999,-0.1675830078125,10.229745605468748,0.0,0.0,0.0,359.1564860707465,359.49643403757216,14.535454605251417
2026-09-28 19:26:59.632181760,0.06463916015625,-0.18912939453125,10.179470703124998,0.0,0.0,0.0,359.1559224737098,359.49620968642205,14.535563431333257
2026-09-28 19:26:59.632181760,0.076609375,-0.21306982421874998,10.212987304687498,0.0,0.0,0.0,359.15566307901787,359.4956655851915,14.535681244783351
2026-09-28 19:26:59.632181760,0.06463916015625,-0.16997705078124997,10.18186474609375,0.0,0.0,0.0,359.1548887504148,359.4958664935449,14.535787390332871
2026-09-28 19:26:59.632181760,0.09576171874999999,-0.18912939453125,10.227351562499999,0.0,-0.0010652644360316954,0.0010652644360316954,359.1554247406254,359.4954409794309,14.535901835581837
2026-09-28 19:26:59.665592320,0.10294384765624999,-0.19870556640624998,10.124407714843748,0.0,0.0,0.0,359.15507773677797,359.4952590797732,14.53601412294118
2026-09-28 19:26:59.682329600,0.124490234375,-0.1963115234375,10.22016943359375,0.0,0.0,0.0,359.15486858554465,359.4950992963695,14.536125174746074
2026-09-28 19:26:59.711180288,0.06942724609374999,-0.162794921875,10.22016943359375,0.0,0.0,0.0,359.1541522535009,359.4951120215053,14.535925673289565
2026-09-28 19:26:59.789305856,0.0813974609375,-0.201099609375,10.227351562499999,0.0,0.0,0.0,359.15393652405436,359.49528895277325,14.535118704816501
2026-09-28 19:26:59.809378304,0.09336767578124999,-0.22264599609375,10.15313623046875,0.0,0.0,0.0,359.153400751342,359.4952580995858,14.534619698841373
2026-09-28 19:26:59.809378304,0.11730810546874999,-0.19870556640624998,10.21538134765625,0.0,-0.0010652644360316954,0.0,359.1532488166071,359.49495842762144,14.535039801998419
2026-09-28 19:26:59.848642560,0.08618554687499999,-0.1963115234375,10.17707666015625,0.0,0.0,0.0010652644360316954,359.152770312991,359.4943582576367,14.5354601751788
2026-09-28 19:26:59.848642560,0.124490234375,-0.19152343749999998,10.198623046875,0.0010652644360316954,0.0,0.0,359.1530024552045,359.494413691024,14.535260421855485
2026-09-28 19:26:59.853274368,0.0909736328125,-0.21306982421874998,10.16989453125,0.0,0.0,0.0,359.152490901288,359.4938921773286,14.534765833990605
2026-09-28 19:26:59.877137152,0.0813974609375,-0.181947265625,10.201017089843749,0.0,0.0,0.0010652644360316954,359.1522361458727,359.49346381957787,14.535186874637287
2026-09-28 19:26:59.877137152,0.1292783203125,-0.14124853515625,10.196229003906248,0.0,-0.0010652644360316954,0.0,359.15181895971654,359.4935200870912,14.534991887997991
2026-09-28 19:26:59.877137152,0.08379150390625,-0.21306982421874998,10.18186474609375,0.0,0.0,0.0,359.15151450321457,359.4931553071466,14.535098417488639
2026-09-28 19:26:59.892866048,0.11970214843749999,-0.20349365234374997,10.212987304687498,-0.0010652644360316954,0.0,0.0,359.14818067764867,359.49264684688916,14.53451142344798
2026-09-28 19:26:59.892866048,0.11012597656249999,-0.19870556640624998,10.172288574218749,0.0,0.0,0.0,359.14847434744075,359.4924602534448,14.534616243529584
2026-09-28 19:26:59.892866048,0.1005498046875,-0.20588769531249998,10.21059326171875,0.0,0.0,0.0,359.14781780372675,359.4919234252786,14.53473316740173
2026-09-28 19:26:59.892866048,0.11012597656249999,-0.20349365234374997,10.21059326171875,0.0,0.0,0.0,359.14713848956455,359.4919861184703,14.534838528812076
2026-09-28 19:26:59.892866048,0.08379150390625,-0.201099609375,10.22016943359375,0.0,0.0,0.0,359.1464310672892,359.49231241219,14.534939453558124
2026-09-28 19:26:59.892866048,0.0813974609375,-0.18434130859374998,10.201017089843749,0.0,-0.0010652644360316954,0.0,359.1461432851123,359.49237621342223,14.535048516089272
2026-09-28 19:26:59.892866048,0.10773193359375,-0.1963115234375,10.19144091796875,0.0,-0.0010652644360316954,0.0,359.14538665639765,359.49195972719036,14.535163515568666
2026-09-28 19:26:59.892866048,0.13406640625,-0.21067578124999997,10.157924316406248,0.0,-0.0010652644360316954,0.0,359.14447956096996,359.4915887810356,14.534669689609288
2026-09-28 19:26:59.892866048,0.10294384765624999,-0.21067578124999997,10.14834814453125,0.0,0.0,0.0,359.14418679291623,359.49155691299154,14.534776962168465
2026-09-28 19:26:59.892866048,0.11012597656249999,-0.21306982421874998,10.18186474609375,0.0,0.0,0.0,359.1438027254772,359.4908755022934,14.534894135214744
2026-09-28 19:26:59.892866048,0.12209619140624998,-0.17237109374999998,10.1938349609375,0.0,0.0,0.0,359.1438356055376,359.49021927937406,14.534702450737845
2026-09-28 19:26:59.892866048,0.1292783203125,-0.229828125,10.160318359375,0.0,-0.0010652644360316954,0.0,359.1434823275204,359.4895168158886,14.534816632251598
2026-09-28 19:26:59.892866048,0.15321875,-0.17476513671875,10.212987304687498,-0.0010652644360316954,-0.0010652644360316954,0.0,359.14220556838586,359.4892030741316,14.534318895145553
2026-09-28 19:26:59.908496384,0.09336767578124999,-0.18912939453125,10.22016943359375,0.0,0.0,-0.0010652644360316954,359.1420787726185,359.48833189058695,14.533518492583022
2026-09-28 19:26:59.908496384,0.12688427734375,-0.1963115234375,10.21059326171875,0.0,0.0,0.0,359.14189356452357,359.4881396878775,14.533629274083992
2026-09-28 19:26:59.924132352,0.1484306640625,-0.17476513671875,10.16989453125,0.0,0.0,0.0,359.14166513128646,359.4874094177284,14.53344005704518
2026-09-28 19:26:59.971000576,0.0909736328125,-0.20828173828125,10.251291992187499,0.0,0.0,0.0,359.14141545762203,359.48656477852904,14.533248314815058
2026-09-28 19:26:59.971000576,0.11730810546874999,-0.19870556640624998,10.196229003906248,0.0,0.0,0.0,359.1418046761855,359.48631107880027,14.533359491462084
2026-09-28 19:26:59.971000576,0.15082470703124998,-0.18912939453125,10.20819921875,0.0,-0.0010652644360316954,0.0010652644360316954,359.1412845001366,359.485291843164,14.533784975278795
2026-09-28 19:26:59.971000576,0.13167236328124998,-0.18673535156249998,10.184258789062499,0.0,-0.0010652644360316954,0.0010652644360316954,359.1410062848279,359.4848402509508,14.533894066182196
2026-09-28 19:26:59.971000576,0.09815576171875,-0.21306982421874998,10.150742187499999,0.0,0.0,0.0010652644360316954,359.14076042160235,359.4841385917437,14.53431518376946
2026-09-28 19:26:59.971000576,0.11730810546874999,-0.19870556640624998,10.18665283203125,0.0,0.0,0.0,359.1396140726897,359.48427360603716,14.534727046693806
2026-09-28 19:27:00.002483200,0.11252001953124999,-0.21067578124999997,10.17707666015625,0.0,0.0,0.0,359.13889018695954,359.4840970401131,14.534527573811316
2026-09-28 19:27:00.018347264,0.13646044921875,-0.2154638671875,10.15313623046875,0.0,-0.0021305288720633907,-0.0010652644360316954,359.1380248942123,359.48355120298964,14.5337283996106
2026-09-28 19:27:00.049705728,0.11970214843749999,-0.17715917968749997,10.227351562499999,0.0,0.0,0.0,359.13721933206995,359.48383657120706,14.533525197868318
2026-09-28 19:27:00.049705728,0.10773193359375,-0.17955322265624998,10.16989453125,0.0,0.0,0.0,359.1369857342202,359.4836774245987,14.533633860063665
2026-09-28 19:27:00.065339648,0.09336767578124999,-0.19391748046875,10.20819921875,0.0,-0.0010652644360316954,0.0,359.13671429275615,359.4835391639094,14.533437737018199
2026-09-28 19:27:00.065339648,0.07421533203125,-0.21306982421874998,10.239321777343749,0.0,0.0,0.0,359.13607219536567,359.4837123393704,14.533542589778808
2026-09-28 19:27:00.080963840,0.1292783203125,-0.20588769531249998,10.2034111328125,0.0,-0.0021305288720633907,0.0,359.1355848656261,359.4831269872138,14.533357640087413
2026-09-28 19:27:00.080963840,0.14603662109374999,-0.20588769531249998,10.172288574218749,0.0,-0.0010652644360316954,0.0,359.1355694815892,359.48189078965646,14.533171196611839
2026-09-28 19:27:00.080963840,0.09336767578124999,-0.17715917968749997,10.167500488281249,0.0,0.0,0.0,359.1357488603216,359.4811510956782,14.533286173624075
2026-09-28 19:27:00.096581888,0.10773193359375,-0.201099609375,10.22495751953125,0.0,0.0,0.0,359.1358491085652,359.4813877076226,14.533084874755332
2026-09-28 19:27:00.096581888,0.1005498046875,-0.1963115234375,10.22495751953125,0.0,0.0,0.0,359.13570292499577,359.48144818013776,14.533190838660062
2026-09-28 19:27:00.112208384,0.1292783203125,-0.20828173828125,10.172288574218749,0.0,0.0,0.0,359.13535525085535,359.4812677554974,14.533300518012139
2026-09-28 19:27:00.112208384,0.15082470703124998,-0.17237109374999998,10.2321396484375,0.0,0.0,0.0,359.13499460729753,359.4813546115534,14.532790946927422
2026-09-28 19:27:00.127865344,0.1005498046875,-0.22025195312499998,10.205805175781249,0.0,0.0,0.0,359.13495104993297,359.4808693477971,14.53290057006577
2026-09-28 19:27:00.127865344,0.11012597656249999,-0.17715917968749997,10.229745605468748,0.0,-0.0010652644360316954,0.0,359.1347665715194,359.48074451802336,14.533011591217642
2026-09-28 19:27:00.143463424,0.11252001953124999,-0.20828173828125,10.19144091796875,0.0,0.0,0.0,359.13406959191667,359.4808420854393,14.53281192325865
2026-09-28 19:27:00.174705152,0.1005498046875,-0.17715917968749997,10.1938349609375,0.0,0.0,0.0,359.13366348468156,359.48043938645134,14.533227243092805
2026-09-28 19:27:00.190338816,0.10533789062499999,-0.1963115234375,10.22495751953125,0.0,0.0,0.0,359.1333583580464,359.4800613044202,14.533341091221722
2026-09-28 19:27:00.190338816,0.0813974609375,-0.21067578124999997,10.18665283203125,0.0,-0.0010652644360316954,0.0,359.1330299726962,359.47976555970894,14.533450637627936
2026-09-28 19:27:00.190338816,0.13167236328124998,-0.17955322265624998,10.157924316406248,0.0,0.0,0.0,359.1327446524553,359.47986252143403,14.533252809186056
2026-09-28 19:27:00.205956096,0.11970214843749999,-0.18434130859374998,10.196229003906248,0.0,0.0,0.0,359.1326085017322,359.4798278982959,14.533358641276816
2026-09-28 19:27:00.205956096,0.14364257812499998,-0.181947265625,10.21538134765625,0.0,0.0,0.0010652644360316954,359.132459903319,359.4797666194888,14.534072305237435
2026-09-28 19:27:00.221583360,0.09815576171875,-0.1963115234375,10.22495751953125,0.0,0.0,-0.0010652644360316954,359.13212234179275,359.47996435184575,14.533562359756713
2026-09-28 19:27:00.221583360,0.09336767578124999,-0.17476513671875,10.162712402343749,0.0,0.0021305288720633907,0.0,359.1320609039855,359.48056368417303,14.533357806309654
2026-09-28 19:27:00.237207552,0.0813974609375,-0.20349365234374997,10.1651064453125,0.0,0.0,0.0,359.1325545274,359.4801657907388,14.533167687654993
2026-09-28 19:27:00.252836864,0.10294384765624999,-0.20828173828125,10.198623046875,0.0,-0.0021305288720633907,0.0,359.1323150664247,359.47943074013847,14.532373018266936
2026-09-28 19:27:00.252836864,0.12688427734375,-0.18434130859374998,10.22495751953125,0.0,0.0,0.0010652644360316954,359.1317749172646,359.4793665131967,14.53278955674015
2026-09-28 19:27:00.268461312,0.10773193359375,-0.15561279296875,10.217775390624999,0.0,0.0,0.0,359.13165369827317,359.4790690204688,14.532594793967466
2026-09-28 19:27:00.268461312,0.0622451171875,-0.16997705078124997,10.227351562499999,0.0,0.0,0.0010652644360316954,359.1316447346488,359.47872094991993,14.53270602605621
2026-09-28 19:27:00.284086272,0.10533789062499999,-0.20349365234374997,10.15313623046875,0.0,-0.0010652644360316954,0.0,359.13145534568133,359.4778793213389,14.532522960482773
2026-09-28 19:27:00.330957056,0.10773193359375,-0.16518896484374998,10.184258789062499,0.0,0.0,0.0,359.13065035352844,359.47791114609987,14.532324234615022
2026-09-28 19:27:00.330957056,0.09336767578124999,-0.18434130859374998,10.20819921875,0.0,-0.0021305288720633907,0.0,359.13000135947084,359.4772571417329,14.532438502194708
2026-09-28 19:27:00.346580224,0.09815576171875,-0.181947265625,10.2321396484375,-0.0010652644360316954,0.0,0.0,359.1290806759349,359.47720419951065,14.532547846209521
2026-09-28 19:27:00.362209536,0.0909736328125,-0.18673535156249998,10.198623046875,0.0,0.0,-0.0010652644360316954,359.1289090839041,359.47724812096493,14.532041040184385
2026-09-28 19:27:00.377829632,0.11012597656249999,-0.1963115234375,10.18186474609375,0.0,0.0,0.0010652644360316954,359.12807448742046,359.47765272668374,14.532758035446141
2026-09-28 19:27:00.377829632,0.1005498046875,-0.18673535156249998,10.160318359375,0.0,0.0,0.0021305288720633907,359.12774742730187,359.4780255269103,14.533163473505047
2026-09-28 19:27:00.393459712,0.09815576171875,-0.20588769531249998,10.22016943359375,0.0,0.0010652644360316954,0.0,359.12734183902387,359.47837144163606,14.533569566136526
2026-09-28 19:27:00.393459712,0.14364257812499998,-0.17476513671875,10.1938349609375,-0.0010652644360316954,-0.0010652644360316954,0.0,359.1264544442507,359.47815784808813,14.533681340576864
2026-09-28 19:27:00.393459712,0.09815576171875,-0.18434130859374998,10.246503906249998,0.0,-0.0010652644360316954,0.0,359.1260751231601,359.4776097266132,14.533483505832022
2026-09-28 19:27:00.432017408,0.08857958984374999,-0.18912939453125,10.19144091796875,0.0,0.0,0.0,359.1261889986416,359.4775796216641,14.53328667361614
2026-09-28 19:27:00.440513792,0.08857958984374999,-0.18912939453125,10.1746826171875,0.0,0.0,0.0,359.12594383326626,359.478019993416,14.53277604891006
2026-09-28 19:27:00.444517376,0.08857958984374999,-0.18434130859374998,10.18665283203125,0.0,0.0,0.0,359.1251714337672,359.4782001421649,14.532886754193303
2026-09-28 19:27:00.444517376,0.09576171874999999,-0.15321875,10.246503906249998,0.0,0.0,0.0,359.1250013998967,359.47844904416075,14.532992920405642
2026-09-28 19:27:00.444517376,0.16040087890625,-0.16997705078124997,10.14834814453125,0.0,0.0,0.0010652644360316954,359.1250855368241,359.4786323924508,14.533096916694394
2026-09-28 19:27:00.445648128,0.16997705078124997,-0.20828173828125,10.167500488281249,0.0,-0.0010652644360316954,0.0,359.1244730015315,359.4777719061197,14.532905866657291
2026-09-28 19:27:00.446777600,0.11252001953124999,-0.21306982421874998,10.133983886718749,0.0,0.0,-0.0010652644360316954,359.1236129357026,359.47722838260046,14.532102146402638
2026-09-28 19:27:00.456520704,0.10533789062499999,-0.2154638671875,10.198623046875,0.0,-0.0010652644360316954,0.0,359.1227725417211,359.47667280325976,14.531608067699102
2026-09-28 19:27:00.456520704,0.10773193359375,-0.17715917968749997,10.24889794921875,0.0,0.0,0.0,359.12262472478085,359.4760392793787,14.531723423970474
2026-09-28 19:27:00.472272384,0.12688427734375,-0.17476513671875,10.234533691406249,0.0,-0.0010652644360316954,0.0,359.1222258999948,359.47579190042325,14.531833544754438
2026-09-28 19:27:00.487874560,0.05745703125,-0.17237109374999998,10.184258789062499,0.0,-0.0010652644360316954,0.0010652644360316954,359.1218104045912,359.4751911033543,14.532253625445922
2026-09-28 19:27:00.519127296,0.10294384765624999,-0.15561279296875,10.179470703124998,0.0,0.0,0.0,359.1216067652228,359.47519351295904,14.532362007681533
2026-09-28 19:27:00.519127296,0.10294384765624999,-0.19152343749999998,10.184258789062499,0.0,0.0,0.0,359.12093094605274,359.47527982592624,14.531854321890393
2026-09-28 19:27:00.534755840,0.07900341796874999,-0.15800683593749998,10.256080078124999,0.0,-0.0010652644360316954,0.0010652644360316954,359.12067431525315,359.47504961694796,14.532268422734884
2026-09-28 19:27:00.534755840,0.11012597656249999,-0.20349365234374997,10.24889794921875,0.0,0.0,0.0,359.1205593000728,359.474745216207,14.532078456963074
2026-09-28 19:27:00.550383360,0.09815576171875,-0.21306982421874998,10.129195800781249,0.0,-0.0021305288720633907,0.0,359.1200861288486,359.4741026333108,14.532198719486866
2026-09-28 19:27:00.550383360,0.11012597656249999,-0.19391748046875,10.222563476562499,0.0,-0.0010652644360316954,0.0,359.11946032654356,359.47352348761126,14.53231565564511
2026-09-28 19:27:00.550383360,0.11012597656249999,-0.19391748046875,10.222563476562499,0.0,0.0,0.0,359.1191446493249,359.47290147110095,14.532734852852448
2026-09-28 19:27:00.565997312,0.10294384765624999,-0.18912939453125,10.150742187499999,0.0,-0.0010652644360316954,0.0,359.1183584237817,359.4725499378424,14.532540627322012
2026-09-28 19:27:00.581636096,0.13167236328124998,-0.18673535156249998,10.172288574218749,-0.0010652644360316954,-0.0010652644360316954,0.0,359.11690911857113,359.47240142600117,14.53295718840162
2026-09-28 19:27:00.581636096,0.1149140625,-0.18673535156249998,10.179470703124998,0.0,0.0,0.0,359.1170866615168,359.4718807709917,14.533064976657585
2026-09-28 19:27:00.597249536,0.11252001953124999,-0.21067578124999997,10.189046874999999,0.0,-0.0010652644360316954,0.0,359.1164705446396,359.4715807036171,14.532869288244894
2026-09-28 19:27:00.597249536,0.12209619140624998,-0.18912939453125,10.205805175781249,0.0,0.0,0.0,359.1163701292909,359.47141888269243,14.532974800234692
2026-09-28 19:27:00.612875520,0.0909736328125,-0.20828173828125,10.196229003906248,0.0,0.0,0.0010652644360316954,359.11638976206723,359.47042902733045,14.533398641885768
2026-09-28 19:27:00.628505856,0.14603662109374999,-0.18912939453125,10.1938349609375,0.0,-0.0010652644360316954,0.0,359.1161150653659,359.47010143579877,14.53381754392371
2026-09-28 19:27:00.628505856,0.1149140625,-0.181947265625,10.184258789062499,0.0,0.0,0.0,359.11552604879313,359.46937374133324,14.53393147544803
2026-09-28 19:27:00.644127488,0.1005498046875,-0.19870556640624998,10.1651064453125,0.0,0.0,0.0,359.1151183028781,359.4694654229607,14.534037148048245
2026-09-28 19:27:00.659795712,0.16040087890625,-0.19152343749999998,10.222563476562499,0.0,0.0,0.0,359.114838115288,359.4691302972812,14.533843972437477
2026-09-28 19:27:00.659795712,0.09815576171875,-0.22025195312499998,10.21059326171875,0.0,0.0010652644360316954,0.0,359.1147513740651,359.4692188931629,14.533944641755184
2026-09-28 19:27:00.675395840,0.08857958984374999,-0.1963115234375,10.227351562499999,0.0,0.0,0.0,359.1142257938056,359.4686140939839,14.534365991669898
2026-09-28 19:27:00.690998528,0.12209619140624998,-0.18912939453125,10.155530273437499,0.0,-0.0010652644360316954,0.0,359.1138289637321,359.4685722178956,14.534781394241469
2026-09-28 19:27:00.690998528,0.07421533203125,-0.18434130859374998,10.234533691406249,0.0010652644360316954,0.0,0.0,359.1139716442431,359.468594782559,14.53458243850602
2026-09-28 19:27:00.706645248,0.09815576171875,-0.18673535156249998,10.19144091796875,0.0,-0.0010652644360316954,0.0,359.1136397237236,359.4682886198666,14.5340865636469
2026-09-28 19:27:00.722267136,0.09576171874999999,-0.21067578124999997,10.2034111328125,0.0,-0.0010652644360316954,0.0,359.11309584217753,359.46821316195985,14.53419525378302
2026-09-28 19:27:00.722267136,0.11252001953124999,-0.17237109374999998,10.222563476562499,0.0,0.0,0.0,359.11301585495664,359.46819652490234,14.534610495074235
2026-09-28 19:27:00.753508096,0.08618554687499999,-0.16997705078124997,10.201017089843749,0.0,0.0,0.0,359.1128029129906,359.4686376375776,14.534709587674838
2026-09-28 19:27:00.753508096,0.09815576171875,-0.17715917968749997,10.205805175781249,0.0,-0.0010652644360316954,0.0,359.11231607282895,359.46805310651183,14.534517399033549
2026-09-28 19:27:00.784744960,0.10773193359375,-0.19152343749999998,10.16989453125,0.0,-0.0010652644360316954,0.0010652644360316954,359.11134667904776,359.4680283180826,14.535237572588633
2026-09-28 19:27:00.800380160,0.13646044921875,-0.201099609375,10.1746826171875,0.0,0.0,0.0,359.11160022019556,359.46764671249906,14.535352086612761
2026-09-28 19:27:00.816008448,0.10294384765624999,-0.16997705078124997,10.22016943359375,0.0,-0.0010652644360316954,0.0,359.11092450373894,359.4671602978466,14.535462047870924
2026-09-28 19:27:00.847247104,0.076609375,-0.181947265625,10.2034111328125,0.0010652644360316954,0.0010652644360316954,0.0010652644360316954,359.1114724241667,359.4677032590755,14.535864889827263
2026-09-28 19:27:00.909746176,0.10294384765624999,-0.18434130859374998,10.229745605468748,0.0,0.0,0.0,359.11134742086193,359.4681877258957,14.535965904608126
2026-09-28 19:27:00.909746176,0.17237109374999998,-0.24898046875,10.145954101562499,0.0,-0.0010652644360316954,0.0,359.1109609802267,359.46819005485935,14.53576622167963
2026-09-28 19:27:00.925390592,0.1005498046875,-0.16040087890625,10.157924316406248,0.0,0.0,0.0,359.1106709975382,359.46789519747375,14.53556847854779
2026-09-28 19:27:00.925390592,0.14124853515625,-0.20588769531249998,10.157924316406248,0.0,0.0,0.0,359.1105866699687,359.46756533265074,14.53476038380749
2026-09-28 19:27:00.925390592,0.13885449218749998,-0.18912939453125,10.212987304687498,0.0,0.0,0.0,359.11049677327213,359.4671522413482,14.534565514097725
2026-09-28 19:27:00.925390592,0.124490234375,-0.19152343749999998,10.14834814453125,0.0,0.0,0.0,359.11027664081854,359.4667749281867,14.53467405437994
2026-09-28 19:27:00.941018368,0.13885449218749998,-0.17476513671875,10.189046874999999,0.0,0.0,0.0,359.1102796653026,359.46653525609685,14.534478396217619
2026-09-28 19:27:00.941018368,0.10294384765624999,-0.22264599609375,10.184258789062499,0.0,0.0,0.0,359.11004870115096,359.46643149297034,14.534281954492316
2026-09-28 19:27:00.941018368,0.10533789062499999,-0.16997705078124997,10.167500488281249,0.0,0.0,0.0,359.1100726841226,359.4660374772924,14.53409069538965
2026-09-28 19:27:00.941018368,0.10294384765624999,-0.20349365234374997,10.212987304687498,0.0,-0.0010652644360316954,0.0,359.10978473831443,359.4661103670612,14.534199959419345
2026-09-28 19:27:00.941018368,0.12688427734375,-0.1484306640625,10.205805175781249,0.0,0.0,0.0,359.1094035602702,359.4659921564713,14.533699905129609
2026-09-28 19:27:00.941018368,0.10773193359375,-0.19152343749999998,10.20819921875,0.0,0.0,0.0,359.1095762497263,359.466151739806,14.533188041581404
2026-09-28 19:27:00.956627968,0.06942724609374999,-0.17476513671875,10.256080078124999,0.0,0.0,0.0,359.10915967172934,359.466047868745,14.532993304665414
2026-09-28 19:27:00.956627968,0.08379150390625,-0.22504003906249997,10.189046874999999,0.0,0.0,0.0010652644360316954,359.10823804369494,359.4659556248823,14.533407912758742
2026-09-28 19:27:00.956627968,0.11730810546874999,-0.16997705078124997,10.1651064453125,0.0,0.0,0.0,359.10826226954777,359.4654935997196,14.533219597975274
2026-09-28 19:27:00.956627968,0.0909736328125,-0.1963115234375,10.198623046875,0.0,0.0,0.0,359.10811377969407,359.46519285737503,14.533022402853804
2026-09-28 19:27:00.956627968,0.13406640625,-0.17955322265624998,10.189046874999999,0.0,0.0,0.0,359.1078239189003,359.46525896215024,14.533126884422371
2026-09-28 19:27:00.956627968,0.1484306640625,-0.1963115234375,10.17707666015625,0.0,0.0,0.0,359.10730794837076,359.46498049388236,14.532625288429209
2026-09-28 19:27:00.972249856,0.11012597656249999,-0.21067578124999997,10.1746826171875,0.0,0.0,0.0,359.10773532334775,359.4645240408821,14.532428410002563
2026-09-28 19:27:00.987877888,0.08857958984374999,-0.1675830078125,10.172288574218749,0.0,0.0,0.0,359.1077235533245,359.4645383679546,14.531923000987472
2026-09-28 19:27:00.987877888,0.1292783203125,-0.16997705078124997,10.217775390624999,0.0,0.0,0.0,359.10764282417347,359.46444487512207,14.531420186240808
2026-09-28 19:27:01.003508736,0.076609375,-0.162794921875,10.184258789062499,0.0,-0.0010652644360316954,0.0,359.10716092451185,359.46427321107296,14.53127932320575
2026-09-28 19:27:01.019127808,0.09576171874999999,-0.17237109374999998,10.18186474609375,0.0,0.0,0.0,359.10718927133524,359.4642885382072,14.531444397185647
2026-09-28 19:27:01.019127808,0.13406640625,-0.15800683593749998,10.18186474609375,0.0,0.0,0.0,359.107390607361,359.4644772630813,14.531603176529982
2026-09-28 19:27:01.046168064,0.14124853515625,-0.19870556640624998,10.162712402343749,0.0,0.0,0.0,359.1071780512531,359.4645454211939,14.531762932322948
2026-09-28 19:27:01.047297024,0.11012597656249999,-0.20588769531249998,10.162712402343749,-0.0010652644360316954,0.0,0.0,359.1062133293767,359.4644102072008,14.531618901346599
2026-09-28 19:27:01.060781824,0.09576171874999999,-0.17476513671875,10.18186474609375,0.0,-0.0010652644360316954,0.0,359.1055204850066,359.4640053824661,14.531179522052891
2026-09-28 19:27:01.066706432,0.13885449218749998,-0.15082470703124998,10.2034111328125,0.0,0.0,0.0,359.1052629244817,359.4636458817305,14.531649539332244
2026-09-28 19:27:01.082433792,0.12688427734375,-0.20588769531249998,10.205805175781249,-0.0010652644360316954,0.0,0.0,359.10475940197654,359.46321186932244,14.531508759294445
2026-09-28 19:27:01.082433792,0.15800683593749998,-0.20588769531249998,10.18665283203125,0.0,-0.0031957933080950856,0.0,359.10441671121146,359.4622460006332,14.531684091882425
2026-09-28 19:27:01.098068992,0.1149140625,-0.19870556640624998,10.212987304687498,0.0,0.0,0.0,359.104040760552,359.46155148739314,14.531854973839579
2026-09-28 19:27:01.113698048,0.1292783203125,-0.16040087890625,10.1746826171875,0.0,0.0,0.0,359.10355771527895,359.461686964921,14.531407178869873
2026-09-28 19:27:01.129321216,0.12209619140624998,-0.1675830078125,10.18665283203125,0.0,-0.0010652644360316954,0.0,359.1036025207169,359.4610031538243,14.531576976370667
2026-09-28 19:27:01.129321216,0.10773193359375,-0.18434130859374998,10.17707666015625,0.0,0.0,0.0,359.1033745923375,359.4611793084827,14.531431758332559
2026-09-28 19:27:01.176193280,0.07900341796874999,-0.15800683593749998,10.11961962890625,0.0,0.0,0.0,359.1033793351418,359.4614714368373,14.530982128660666
2026-09-28 19:27:01.191813120,0.10773193359375,-0.21306982421874998,10.222563476562499,0.0,-0.0010652644360316954,0.0,359.1033299360843,359.461105067786,14.531149884293642
2026-09-28 19:27:01.191813120,0.09576171874999999,-0.19152343749999998,10.1938349609375,0.0,0.0,0.0,359.10316008848827,359.4609253840367,14.53101174766332
2026-09-28 19:27:01.191813120,0.11730810546874999,-0.18912939453125,10.229745605468748,0.0,0.0,0.0,359.10308012615866,359.46073712347703,14.531182714024665
2026-09-28 19:27:01.223068672,0.09576171874999999,-0.22025195312499998,10.21059326171875,0.0,0.0,0.0,359.1030989762107,359.46092416385164,14.531343162777205
2026-09-28 19:27:01.238687744,0.124490234375,-0.20349365234374997,10.133983886718749,0.0,-0.0010652644360316954,0.0,359.10267510024056,359.4605909920126,14.53150966271239
2026-09-28 19:27:01.238687744,0.17476513671875,-0.23222216796874998,10.20819921875,0.0,0.0,0.0,359.102178357368,359.46031552598447,14.531066602375954
2026-09-28 19:27:01.238687744,0.12209619140624998,-0.19870556640624998,10.234533691406249,-0.0010652644360316954,0.0,0.0,359.1012045187789,359.4600473183384,14.530925527770028
2026-09-28 19:27:01.238687744,0.10294384765624999,-0.22743408203124998,10.16989453125,0.0,0.0,0.0,359.1006198934404,359.4601373025226,14.531085830991005
2026-09-28 19:27:01.254321152,0.12688427734375,-0.1963115234375,10.1363779296875,0.0,0.0,0.0,359.10046966397584,359.4596948879141,14.530952399831973
2026-09-28 19:27:01.254321152,0.12209619140624998,-0.19870556640624998,10.1938349609375,0.0,-0.0010652644360316954,0.0,359.1000466736362,359.4590836060149,14.531120936366705
2026-09-28 19:27:01.316811008,0.11012597656249999,-0.181947265625,10.17707666015625,0.0,-0.0021305288720633907,0.0,359.0993173591467,359.45808089130054,14.530992005213161
2026-09-28 19:27:01.316811008,0.1149140625,-0.23222216796874998,10.196229003906248,0.0,0.0010652644360316954,0.0,359.0993891737153,359.4581903525698,14.53114710123526
2026-09-28 19:27:01.316811008,0.08618554687499999,-0.20828173828125,10.189046874999999,0.0,0.0,0.0,359.09924672082826,359.45818621309047,14.530698982739304
2026-09-28 19:27:01.332442624,0.1149140625,-0.16997705078124997,10.17707666015625,-0.0010652644360316954,-0.0010652644360316954,0.0,359.0980558605647,359.4580947837989,14.529951729311486
2026-09-28 19:27:01.348063744,0.124490234375,-0.17476513671875,10.179470703124998,0.0,0.0,0.0,359.09742821847135,359.45791920026903,14.529812226400743
2026-09-28 19:27:01.361426432,0.11730810546874999,-0.20588769531249998,10.1938349609375,0.0,0.0,0.0,359.0968960599265,359.45773194302416,14.529667094878507
2026-09-28 19:27:01.362532608,0.124490234375,-0.20349365234374997,10.162712402343749,0.0,0.0,0.0,359.0970817466672,359.4574583740603,14.52983360550222
2026-09-28 19:27:01.362642688,0.09576171874999999,-0.2154638671875,10.198623046875,0.0,0.0,0.0,359.0967359543013,359.4575101096614,14.529689582597703
2026-09-28 19:27:01.362642688,0.11252001953124999,-0.21067578124999997,10.2321396484375,0.0,0.0,0.0,359.09624423383514,359.4578392060365,14.529546842231246
2026-09-28 19:27:01.372135424,0.162794921875,-0.15082470703124998,10.17707666015625,0.0,0.0,0.0,359.0957992700053,359.4578070398573,14.529708791851965
2026-09-28 19:27:01.373262080,0.14364257812499998,-0.20349365234374997,10.20819921875,0.0,0.0,0.0,359.0965794939002,359.456988516329,14.529877497031956
2026-09-28 19:27:01.373262080,0.07421533203125,-0.19870556640624998,10.157924316406248,0.0,0.0,0.0,359.0961602563156,359.4567395751611,14.529738913361923
2026-09-28 19:27:01.375781632,0.12209619140624998,-0.20349365234374997,10.179470703124998,0.0010652644360316954,0.0,0.0010652644360316954,359.09676301635585,359.45669447953804,14.530209558896173
2026-09-28 19:27:01.379621888,0.12209619140624998,-0.21067578124999997,10.256080078124999,0.0,0.0,0.0,359.0961645044052,359.45710472708663,14.530062969115821
2026-09-28 19:27:01.395387136,0.0909736328125,-0.14603662109374999,10.2034111328125,0.0,0.0,0.0,359.09573236977803,359.45662266703863,14.530234373126813
2026-09-28 19:27:01.395387136,0.08857958984374999,-0.24898046875,10.2321396484375,0.0,-0.0021305288720633907,0.0,359.09570592201635,359.4560054215528,14.530406862015457
2026-09-28 19:27:01.411118592,0.13167236328124998,-0.17237109374999998,10.1938349609375,0.0010652644360316954,0.0,0.0,359.0957263871379,359.45550607278307,14.53027466589008
2026-09-28 19:27:01.411118592,0.1149140625,-0.1963115234375,10.145954101562499,0.0,0.0,0.0010652644360316954,359.09590983469235,359.45539372502566,14.530438430088752
2026-09-28 19:27:01.426758912,0.11252001953124999,-0.19152343749999998,10.201017089843749,0.0,0.0,0.0,359.0959811672321,359.45486003656504,14.530913148279911
2026-09-28 19:27:01.442373120,0.1292783203125,-0.18673535156249998,10.167500488281249,0.0,0.0,0.0,359.09556016010055,359.45494460550157,14.530769828183361
2026-09-28 19:27:01.458003200,0.10294384765624999,-0.16518896484374998,10.138771972656249,0.0,0.0,0.0,359.0952404962336,359.45447614443924,14.530935421803225
2026-09-28 19:27:01.458003200,0.10294384765624999,-0.19391748046875,10.2321396484375,0.0,0.0,0.0,359.095150258669,359.4546711318349,14.531399063671993
2026-09-28 19:27:01.473625600,0.11970214843749999,-0.1675830078125,10.2034111328125,0.0,0.0,0.0,359.09452613938123,359.4546016180356,14.531259522030025
2026-09-28 19:27:01.489244928,0.1149140625,-0.18673535156249998,10.162712402343749,0.0,0.0,0.0,359.0940001801369,359.45465952470255,14.53111422693543
2026-09-28 19:27:01.504872704,0.05266894531249999,-0.22025195312499998,10.18665283203125,0.0,0.0,0.0,359.09371712772935,359.45436724969375,14.530674229806968
2026-09-28 19:27:01.520489728,0.10294384765624999,-0.258556640625,10.189046874999999,0.0,0.0010652644360316954,0.0,359.09356981778785,359.45513714100457,14.53022126487748
2026-09-28 19:27:01.536121600,0.13167236328124998,-0.23940429687499998,10.157924316406248,0.0,-0.0010652644360316954,0.0,359.0929127832263,359.45520596762816,14.530080186181351
2026-09-28 19:27:01.536121600,0.17476513671875,-0.1963115234375,10.1938349609375,0.0,0.0,0.0,359.092092518277,359.45450937786995,14.530255260637235
2026-09-28 19:27:01.536121600,0.11730810546874999,-0.21306982421874998,10.18665283203125,0.0,-0.0010652644360316954,0.0,359.09146760456207,359.4537605561422,14.530120549967632
2026-09-28 19:27:01.551770624,0.11730810546874999,-0.162794921875,10.1651064453125,0.0,0.0,0.0,359.091700309537,359.4535658922497,14.529978635409638
2026-09-28 19:27:01.582998784,0.14124853515625,-0.201099609375,10.179470703124998,0.0,-0.0010652644360316954,0.0,359.09113612474187,359.45310595226164,14.529843371979425
2026-09-28 19:27:01.598618624,0.06942724609374999,-0.16518896484374998,10.141166015624998,0.0,0.0,0.0,359.0909699458562,359.4521767511214,14.530015262255745
2026-09-28 19:27:01.598618624,0.11970214843749999,-0.18912939453125,10.2034111328125,0.0,0.0,0.0010652644360316954,359.09119559808227,359.4519069867907,14.53079369853567
2026-09-28 19:27:01.598618624,0.1149140625,-0.22264599609375,10.196229003906248,0.0,0.0,0.0,359.09104404027283,359.45207373154614,14.530650716180913
2026-09-28 19:27:01.598618624,0.13646044921875,-0.201099609375,10.157924316406248,0.0,-0.0010652644360316954,0.0,359.09060634713416,359.45134133297915,14.53052211701619
2026-09-28 19:27:01.598618624,0.09815576171875,-0.1675830078125,10.21059326171875,0.0,0.0,0.0,359.09124052600083,359.4512726819202,14.530377439520885
2026-09-28 19:27:01.614250496,0.09336767578124999,-0.2154638671875,10.198623046875,0.0010652644360316954,0.0,0.0010652644360316954,359.0911952168907,359.451771909018,14.530838762703128
2026-09-28 19:27:01.614250496,0.11252001953124999,-0.21785791015624997,10.155530273437499,0.0,0.0,0.0,359.0903711235976,359.45156303562396,14.53100626679676
2026-09-28 19:27:01.629868032,0.10773193359375,-0.14364257812499998,10.2034111328125,0.0,0.0,0.0010652644360316954,359.0901389066252,359.4519400315826,14.531474353690804
2026-09-28 19:27:01.629868032,0.124490234375,-0.1675830078125,10.19144091796875,0.0,-0.0010652644360316954,0.0,359.0901918440002,359.4517314476991,14.531636345683829
2026-09-28 19:27:01.645495296,0.10533789062499999,-0.19152343749999998,10.222563476562499,0.0,0.0,0.0,359.0904284050635,359.4511707295624,14.531499253168809
2026-09-28 19:27:01.661120512,0.1005498046875,-0.20828173828125,10.138771972656249,0.0,-0.0010652644360316954,-0.0010652644360316954,359.0901277677041,359.45113843631736,14.531054457841515
2026-09-28 19:27:01.661120512,0.124490234375,-0.22264599609375,10.222563476562499,0.0,0.0,0.0,359.08965741980484,359.4510855630595,14.531221501185675
2026-09-28 19:27:01.692374272,0.1149140625,-0.18673535156249998,10.18186474609375,0.0,0.0,0.0,359.0892461338208,359.4513355074944,14.531073160089736
2026-09-28 19:27:01.707988992,0.10294384765624999,-0.21785791015624997,10.184258789062499,0.0,0.0,0.0,359.0889454799356,359.45154706369334,14.530928708346067
2026-09-28 19:27:01.707988992,0.11730810546874999,-0.16518896484374998,10.1651064453125,0.0,0.0,0.0,359.0888694491045,359.4513384392858,14.531102760393084
2026-09-28 19:27:01.707988992,0.15082470703124998,-0.23461621093749999,10.229745605468748,0.0,-0.0010652644360316954,0.0,359.0886820772845,359.45128724516275,14.531267065993255
2026-09-28 19:27:01.723645184,0.11970214843749999,-0.23461621093749999,10.239321777343749,0.0,0.0,0.0,359.08740455845486,359.45151430727054,14.531121161546217
2026-09-28 19:27:01.723645184,0.11970214843749999,-0.1963115234375,10.157924316406248,0.0,-0.0010652644360316954,0.0,359.0867633571101,359.45079102252026,14.531294614742881
2026-09-28 19:27:01.739249408,0.12688427734375,-0.17955322265624998,10.2034111328125,0.0,0.0,0.0,359.0861236667926,359.45055884461965,14.5317654391485
2026-09-28 19:27:01.754878976,0.13646044921875,-0.20828173828125,10.1651064453125,0.0,0.0,0.0,359.08546940013105,359.45051927533814,14.53162133036333
2026-09-28 19:27:01.770494720,0.11012597656249999,-0.16040087890625,10.205805175781249,0.0,-0.0010652644360316954,0.0,359.0852327834418,359.45007039880693,14.531790948233041
2026-09-28 19:27:01.770494720,0.13646044921875,-0.14124853515625,10.19144091796875,0.0,0.0,0.0,359.08489826545554,359.4501308063143,14.531953763772115
2026-09-28 19:27:01.796816640,0.09336767578124999,-0.20588769531249998,10.179470703124998,0.0,-0.0021305288720633907,0.0,359.0842851255881,359.4497530404353,14.532121216222372
2026-09-28 19:27:01.797929728,0.124490234375,-0.18912939453125,10.167500488281249,0.0,0.0,0.0,359.08385428162563,359.44971719736907,14.532287888199026
2026-09-28 19:27:01.833013760,0.14603662109374999,-0.17955322265624998,10.15313623046875,0.0,0.0,0.0,359.0840882023355,359.4498618006108,14.532144130358123
2026-09-28 19:27:01.848641536,0.162794921875,-0.17476513671875,10.1651064453125,0.0,-0.0010652644360316954,0.0,359.0836977653097,359.44929674435383,14.532312436040476
2026-09-28 19:27:01.848641536,0.1005498046875,-0.17476513671875,10.21538134765625,0.0,0.0,0.0,359.0843862637356,359.4486028853519,14.532482018515038
2026-09-28 19:27:01.848641536,0.08857958984374999,-0.17476513671875,10.22495751953125,0.0,0.0,0.0,359.0842069415999,359.4488284450593,14.532336310931715
2026-09-28 19:27:01.848641536,0.11012597656249999,-0.17715917968749997,10.157924316406248,0.0010652644360316954,0.0,0.0,359.08434448796413,359.44931203433566,14.532185551527565
2026-09-28 19:27:01.848641536,0.10533789062499999,-0.18434130859374998,10.179470703124998,0.0,0.0,0.0,359.08447648234755,359.4495334262835,14.53173477867347
2026-09-28 19:27:01.879895040,0.11252001953124999,-0.18673535156249998,10.20819921875,0.0,0.0,0.0,359.0842759569058,359.44928337646724,14.531594249174432
2026-09-28 19:27:01.895521024,0.11970214843749999,-0.15082470703124998,10.196229003906248,0.0,0.0,0.0,359.0839491822707,359.4495151145757,14.53144513785627
2026-09-28 19:27:01.895521024,0.12209619140624998,-0.22504003906249997,10.222563476562499,0.0,-0.0021305288720633907,0.0,359.08317846398626,359.4488006776683,14.531309030357832
2026-09-28 19:27:01.926768896,0.11970214843749999,-0.21306982421874998,10.189046874999999,0.0,0.0,0.0010652644360316954,359.0831217464243,359.4483960323584,14.532093193930192
2026-09-28 19:27:01.926768896,0.1005498046875,-0.17237109374999998,10.2321396484375,0.0,0.0,0.0,359.08277563681406,359.44802069426373,14.532259085874802
2026-09-28 19:27:01.926768896,0.076609375,-0.21067578124999997,10.212987304687498,0.0,0.0,0.0,359.082943977101,359.44799008804245,14.53211300678809
2026-09-28 19:27:01.926768896,0.124490234375,-0.18673535156249998,10.179470703124998,0.0,0.0,0.0,359.0824166805336,359.44833328889644,14.532275696360127
2026-09-28 19:27:01.942397696,0.09336767578124999,-0.21306982421874998,10.239321777343749,0.0,0.0,0.0,359.08232213146186,359.44826239830326,14.532437164211846
2026-09-28 19:27:01.942397696,0.11012597656249999,-0.17237109374999998,10.217775390624999,0.0,0.0,0.0,359.082232639761,359.44833998452333,14.532598621588102
2026-09-28 19:27:01.942397696,0.0813974609375,-0.19152343749999998,10.196229003906248,0.0,-0.0010652644360316954,0.0,359.0819752727836,359.44777057527523,14.532158425672234
2026-09-28 19:27:01.958024704,0.11970214843749999,-0.16997705078124997,10.198623046875,0.0,-0.0021305288720633907,0.0,359.08125947099137,359.4469246410142,14.532034569680787
2026-09-28 19:27:01.958024704,0.10773193359375,-0.17955322265624998,10.18665283203125,0.0,0.0,-0.0010652644360316954,359.08094062755583,359.4466578304968,14.53128495991416
2026-09-28 19:27:01.973640704,0.11012597656249999,-0.1675830078125,10.1746826171875,0.0,0.0,0.0,359.0812264396519,359.4463685857087,14.530837346454298
2026-09-28 19:27:01.973640704,0.0813974609375,-0.1675830078125,10.17707666015625,0.0,0.0,0.0,359.0809385281995,359.4459182946761,14.531007647536166
2026-09-28 19:27:01.989276416,0.11970214843749999,-0.17955322265624998,10.227351562499999,0.0,0.0,0.0,359.08133872745657,359.445428066025,14.531177165228222
2026-09-28 19:27:02.004887552,0.11252001953124999,-0.17955322265624998,10.1938349609375,0.0,-0.0010652644360316954,0.0010652644360316954,359.0808906665668,359.4455361663503,14.531336361425772
2026-09-28 19:27:02.020510720,0.124490234375,-0.17715917968749997,10.234533691406249,0.0,0.0,0.0,359.0806946630389,359.4456702441814,14.531496016926894
2026-09-28 19:27:02.020510720,0.1005498046875,-0.181947265625,10.1363779296875,0.0,-0.0021305288720633907,0.0,359.08046022153195,359.44519463005093,14.53166578875779
2026-09-28 19:27:02.036143104,0.09815576171875,-0.18673535156249998,10.22016943359375,0.0,-0.0010652644360316954,0.0010652644360316954,359.0802664495734,359.4448843614999,14.531835187297217
2026-09-28 19:27:02.051763456,0.059851074218749994,-0.19870556640624998,10.14834814453125,0.0,0.0,0.0,359.0799982726097,359.44497675303023,14.53169039768312
2026-09-28 19:27:02.051763456,0.12688427734375,-0.18434130859374998,10.17707666015625,0.0,0.0,0.0,359.0792680593064,359.44600247905925,14.532147575523405
2026-09-28 19:27:02.080133376,0.0909736328125,-0.17955322265624998,10.16989453125,0.0,0.0,0.0,359.0793857996213,359.4460910813702,14.532307077710543
2026-09-28 19:27:02.081382656,0.08857958984374999,-0.17476513671875,10.1746826171875,0.0,0.0,0.0,359.07882401641297,359.44649008317816,14.531857088807882
2026-09-28 19:27:02.093284096,0.10294384765624999,-0.1963115234375,10.18665283203125,0.0,0.0,0.0,359.078638061213,359.4465983768559,14.531411282192256
2026-09-28 19:27:02.098392064,0.12209619140624998,-0.17715917968749997,10.229745605468748,0.0,-0.0010652644360316954,0.0,359.07834023660183,359.44608049632365,14.531581682110733
2026-09-28 19:27:02.098392064,0.11252001953124999,-0.201099609375,10.18186474609375,0.0,-0.0010652644360316954,0.0,359.07810815741834,359.44556994690106,14.532056454458395
2026-09-28 19:27:02.114150144,0.09576171874999999,-0.1963115234375,10.157924316406248,0.0,0.0,0.0,359.0779758026096,359.44544785735917,14.53191809118556
2026-09-28 19:27:02.129757440,0.11970214843749999,-0.201099609375,10.112437499999999,0.0,-0.0010652644360316954,0.0,359.07781666360995,359.44558943256675,14.53208220351698
2026-09-28 19:27:02.129757440,0.08857958984374999,-0.21306982421874998,10.212987304687498,0.0,-0.0010652644360316954,0.0,359.0774621636428,359.44497732319275,14.532253009801556
2026-09-28 19:27:02.145383424,0.11012597656249999,-0.14603662109374999,10.17707666015625,0.0,0.0,0.0,359.0775982991003,359.4449302112395,14.531810001974275
2026-09-28 19:27:02.161006592,0.13406640625,-0.19391748046875,10.227351562499999,0.0,0.0,0.0,359.0772967622555,359.4452024105175,14.531357426934786
2026-09-28 19:27:02.161006592,0.11252001953124999,-0.181947265625,10.189046874999999,0.0,-0.0010652644360316954,0.0,359.07693320502693,359.4445142057601,14.53152841869487
2026-09-28 19:27:02.176635392,0.07900341796874999,-0.18434130859374998,10.227351562499999,0.0,0.0,0.0010652644360316954,359.07664387926235,359.4440947756349,14.532003816273987
2026-09-28 19:27:02.176635392,0.13646044921875,-0.181947265625,10.217775390624999,0.0,0.0,0.0,359.0763430823964,359.44420865512024,14.532164261885006
2026-09-28 19:27:02.192273408,0.10773193359375,-0.19391748046875,10.18665283203125,0.0,0.0,0.0,359.0760898490349,359.44409397118045,14.532324255726875
2026-09-28 19:27:02.239126016,0.08618554687499999,-0.16997705078124997,10.1746826171875,0.0,0.0,0.0,359.07603904379687,359.4433243996477,14.532195030020443
2026-09-28 19:27:02.239126016,0.11970214843749999,-0.19391748046875,10.205805175781249,0.0,0.0,0.0,359.0762211359189,359.4438053593561,14.532353851625523
2026-09-28 19:27:02.239126016,0.14603662109374999,-0.18434130859374998,10.179470703124998,0.0,0.0,0.0010652644360316954,359.0760812494399,359.4433292510416,14.533135927897781
2026-09-28 19:27:02.254743808,0.13406640625,-0.15321875,10.198623046875,0.0,0.0,0.0,359.0759344039798,359.44280553385516,14.53330004561887
2026-09-28 19:27:02.286009856,0.11012597656249999,-0.18673535156249998,10.201017089843749,0.0,-0.0010652644360316954,0.0010652644360316954,359.07560036582163,359.4425000993487,14.533768050376144
2026-09-28 19:27:02.301624064,0.0909736328125,-0.22743408203124998,10.201017089843749,0.0,0.0,0.0,359.0747645993258,359.44234825160675,14.533932890256873
2026-09-28 19:27:02.332872192,0.162794921875,-0.21785791015624997,10.22495751953125,0.0,0.0,0.0,359.0745214107216,359.4425720506474,14.534090857528252
2026-09-28 19:27:02.348498944,0.07421533203125,-0.21306982421874998,10.20819921875,0.0,0.0,0.0,359.0742778405757,359.4417746464933,14.534263733319364
2026-09-28 19:27:02.364128256,0.124490234375,-0.17955322265624998,10.167500488281249,0.0,0.0,0.0,359.07438861058233,359.44182404634233,14.534428118982817
2026-09-28 19:27:02.379751168,0.1149140625,-0.17476513671875,10.205805175781249,0.0,0.0,0.0010652644360316954,359.074319811701,359.44170378001996,14.534899530292693
2026-09-28 19:27:02.379751168,0.124490234375,-0.20588769531249998,10.18665283203125,0.0,0.0,0.0,359.07416429992634,359.4410905078679,14.535068568600662
2026-09-28 19:27:02.379751168,0.13167236328124998,-0.19391748046875,10.19144091796875,0.0,0.0,0.0,359.07407450264435,359.44075610663265,14.53523489717048
2026-09-28 19:27:02.379751168,0.11730810546874999,-0.201099609375,10.19144091796875,0.0,0.0,0.0,359.0742816563947,359.4400600128015,14.535403371718889
2026-09-28 19:27:02.379751168,0.076609375,-0.21306982421874998,10.172288574218749,0.0,0.0,0.0010652644360316954,359.07377560974584,359.4400035528015,14.536176342967709
2026-09-28 19:27:02.395369984,0.13646044921875,-0.14364257812499998,10.21538134765625,0.0,0.0,0.0,359.07339387556266,359.440259985658,14.536032628150108
2026-09-28 19:27:02.395369984,0.16518896484374998,-0.19391748046875,10.2034111328125,0.0,0.0,0.0010652644360316954,359.07346089562935,359.44039665868763,14.536489817448581
2026-09-28 19:27:02.395369984,0.10533789062499999,-0.1963115234375,10.16989453125,0.0,0.0,0.0,359.0732222472309,359.43984459756194,14.536044578766434
2026-09-28 19:27:02.395369984,0.1149140625,-0.18673535156249998,10.212987304687498,0.0,0.0,0.0,359.0729937459577,359.44003231591523,14.535597257088824
2026-09-28 19:27:02.395369984,0.11012597656249999,-0.18912939453125,10.133983886718749,0.0,0.0,0.0,359.07306829772773,359.4402253975267,14.535452040833963
2026-09-28 19:27:02.395369984,0.11252001953124999,-0.19391748046875,10.251291992187499,0.0,0.0,0.0,359.07236562562167,359.44019432499425,14.535618498546144
2026-09-28 19:27:02.411009024,0.12688427734375,-0.16040087890625,10.2417158203125,0.0,-0.0021305288720633907,0.0,359.07186166137944,359.43958681119176,14.535795912260491
2026-09-28 19:27:02.442248960,0.059851074218749994,-0.17237109374999998,10.217775390624999,0.0,0.0,0.0,359.0719562365863,359.43960521127235,14.535955502839029
2026-09-28 19:27:02.442248960,0.07182128906249999,-0.19391748046875,10.22495751953125,0.0,0.0,0.0,359.0720284434724,359.44017356782433,14.536115376075808
2026-09-28 19:27:02.442248960,0.05266894531249999,-0.17715917968749997,10.251291992187499,0.0,-0.0010652644360316954,0.0,359.0719845221735,359.4398945752479,14.536286345607571
2026-09-28 19:27:02.457891840,0.09815576171875,-0.20349365234374997,10.236927734375,0.0,0.0,0.0,359.0722696096686,359.43996720870456,14.535838917571711
2026-09-28 19:27:02.457891840,0.1292783203125,-0.16518896484374998,10.20819921875,0.0,0.0,0.0,359.07220264719257,359.4397371837483,14.535705013519825
2026-09-28 19:27:02.473508864,0.07421533203125,-0.19152343749999998,10.160318359375,0.0,0.0,0.0,359.07243253782394,359.43953705487246,14.535868279492034
2026-09-28 19:27:02.489132288,0.08379150390625,-0.19870556640624998,10.150742187499999,0.0,0.0,0.0,359.07214308175634,359.43995829112237,14.53602867351867
2026-09-28 19:27:02.489132288,0.08379150390625,-0.22025195312499998,10.145954101562499,0.0,0.0,0.0,359.0721463444631,359.4399679346623,14.536194158214727
2026-09-28 19:27:02.504747776,0.11730810546874999,-0.22264599609375,10.205805175781249,0.0,0.0,0.0,359.071990267799,359.43960598683634,14.536366192184998
2026-09-28 19:27:02.504747776,0.0813974609375,-0.18673535156249998,10.222563476562499,0.0,0.0,0.0010652644360316954,359.07188599155666,359.44015920821386,14.537133187838702
2026-09-28 19:27:02.520391424,0.076609375,-0.18912939453125,10.2800205078125,0.0,0.0,0.0,359.0718585212506,359.4405986322238,14.537286162847574
2026-09-28 19:27:02.520391424,0.12688427734375,-0.22504003906249997,10.18186474609375,0.0,-0.0010652644360316954,0.0,359.0712186188937,359.440439290755,14.537151900364908
2026-09-28 19:27:02.535996928,0.124490234375,-0.17955322265624998,10.1363779296875,0.0,-0.0010652644360316954,0.0,359.07086341598205,359.4403673665475,14.53731796514402
2026-09-28 19:27:02.551619840,0.13406640625,-0.20588769531249998,10.205805175781249,0.0,-0.0010652644360316954,0.0,359.0710151664635,359.4394821063668,14.537186854162563
2026-09-28 19:27:02.567256064,0.0909736328125,-0.18434130859374998,10.260868164062499,0.0,0.0,0.0,359.0708274385439,359.4387944078046,14.537356120381704
2026-09-28 19:27:02.567256064,0.10294384765624999,-0.17476513671875,10.184258789062499,0.0,0.0,0.0,359.0708132521636,359.43826768987117,14.53752379591337
2026-09-28 19:27:02.614116608,0.10773193359375,-0.1963115234375,10.1938349609375,0.0,0.0,0.0,359.0702112963657,359.4385341478525,14.537684281771346
2026-09-28 19:27:02.614116608,0.10773193359375,-0.17476513671875,10.17707666015625,0.0,0.0,0.0,359.0698067059943,359.4381553909948,14.538160909628436
2026-09-28 19:27:02.614116608,0.08618554687499999,-0.181947265625,10.196229003906248,0.0,-0.0010652644360316954,0.0,359.06939016843756,359.43799661613895,14.538327567228702
2026-09-28 19:27:02.629752064,0.10294384765624999,-0.22264599609375,10.1651064453125,0.0,-0.0010652644360316954,0.0,359.0687392514342,359.43781321183667,14.538498400418607
2026-09-28 19:27:02.676624128,0.1005498046875,-0.15800683593749998,10.16989453125,0.0,0.0,0.0,359.0683014560857,359.4380476434449,14.538355322295853
2026-09-28 19:27:02.723509760,0.15082470703124998,-0.21306982421874998,10.22495751953125,-0.0010652644360316954,0.0,0.0,359.067796729957,359.4378907406492,14.538519899429664
2026-09-28 19:27:02.723509760,0.12209619140624998,-0.20828173828125,10.201017089843749,0.0,0.0,0.0,359.06730909879104,359.43764280881646,14.538687214030968
2026-09-28 19:27:02.723509760,0.13646044921875,-0.181947265625,10.16989453125,0.0,0.0,0.0,359.0671573913896,359.43792759540526,14.538846254465957
2026-09-28 19:27:02.754746112,0.11012597656249999,-0.17715917968749997,10.239321777343749,0.0,-0.0010652644360316954,0.0,359.0665448640992,359.4376620105988,14.539011774826443
2026-09-28 19:27:02.754746112,0.0909736328125,-0.1675830078125,10.2321396484375,0.0,0.0,0.0,359.0662084766457,359.43777430888935,14.539169662481594
2026-09-28 19:27:02.754746112,0.11970214843749999,-0.19152343749999998,10.212987304687498,0.0,0.0,0.0,359.0658107983355,359.4378954683041,14.539023136630952
2026-09-28 19:27:02.754746112,0.1292783203125,-0.17476513671875,10.167500488281249,0.0,0.0,0.0,359.0658956953964,359.43822988518866,14.53917784931256
2026-09-28 19:27:02.754746112,0.11012597656249999,-0.1963115234375,10.16989453125,0.0,0.0,0.0,359.06599743019234,359.43770393285894,14.538737194919433
2026-09-28 19:27:02.754746112,0.07900341796874999,-0.21785791015624997,10.201017089843749,0.0,0.0,0.0,359.06564379916995,359.437447406669,14.538603080811354
2026-09-28 19:27:02.770385920,0.13646044921875,-0.22264599609375,10.189046874999999,0.0,0.0,0.0,359.065557475536,359.4378021649364,14.538459427469189
2026-09-28 19:27:02.770385920,0.1484306640625,-0.20588769531249998,10.227351562499999,0.0,-0.0010652644360316954,0.0,359.0648488182981,359.4371630209702,14.538325941711609
2026-09-28 19:27:02.770385920,0.08379150390625,-0.201099609375,10.227351562499999,0.0,0.0,0.0,359.06451483934495,359.4370181598205,14.537266423537059
2026-09-28 19:27:02.770385920,0.1292783203125,-0.17237109374999998,10.268050292968748,0.0,0.0,0.0,359.06421101354124,359.4367142818865,14.537131900336362
2026-09-28 19:27:02.770385920,0.18912939453125,-0.23222216796874998,10.18665283203125,0.0,0.0,0.0,359.0637641417892,359.43626795791056,14.536990765253703
2026-09-28 19:27:02.770385920,0.10773193359375,-0.17476513671875,10.18186474609375,0.0010652644360316954,0.0,0.0,359.06365777945985,359.4359386185719,14.536847323741512
2026-09-28 19:27:02.770385920,0.11970214843749999,-0.16518896484374998,10.1746826171875,0.0,-0.0010652644360316954,0.0,359.0635762322731,359.4353697867622,14.536710578525835
2026-09-28 19:27:02.785998080,0.11730810546874999,-0.19870556640624998,10.167500488281249,0.0,0.0,0.0,359.0633501064808,359.43493514633207,14.536572339795024
2026-09-28 19:27:02.801626880,0.15321875,-0.18912939453125,10.16989453125,0.0,0.0,0.0,359.0629087728905,359.4348240808427,14.536739279576786
2026-09-28 19:27:02.801626880,0.10533789062499999,-0.20828173828125,10.17707666015625,0.0,0.0010652644360316954,0.0,359.06256719361676,359.4351411432824,14.536285030331914
2026-09-28 19:27:02.817248512,0.1149140625,-0.201099609375,10.201017089843749,0.0,0.0,0.0,359.0621964264009,359.43574713548486,14.536441242452316
2026-09-28 19:27:02.832869376,0.08618554687499999,-0.1675830078125,10.217775390624999,0.0,0.0,0.0,359.06156445299047,359.4359361497438,14.536297028718584
2026-09-28 19:27:02.832869376,0.10533789062499999,-0.1675830078125,10.201017089843749,0.0,0.0,0.0010652644360316954,359.06121793375956,359.436292837355,14.536760198363645
2026-09-28 19:27:02.848502272,0.12688427734375,-0.15800683593749998,10.1746826171875,0.0,0.0,0.0,359.06140782590785,359.4358965805498,14.536618827547239
2026-09-28 19:27:02.864132864,0.09336767578124999,-0.17476513671875,10.234533691406249,0.0,0.0,0.0,359.06214827088877,359.435173265394,14.536785179219246
2026-09-28 19:27:02.895374080,0.10533789062499999,-0.16040087890625,10.150742187499999,0.0,-0.0010652644360316954,0.0,359.0617634657451,359.43481716773033,14.537258742670176
2026-09-28 19:27:02.926618112,0.08379150390625,-0.18673535156249998,10.145954101562499,0.0,0.0,0.0,359.06133302915885,359.43515374411777,14.537417576218731
2026-09-28 19:27:02.957888256,0.08618554687499999,-0.22025195312499998,10.179470703124998,0.0,0.0,0.0,359.06139375244885,359.4349653716965,14.537277507096187
2026-09-28 19:27:02.973502720,0.15082470703124998,-0.16997705078124997,10.2417158203125,0.0,0.0,0.0,359.0608900445911,359.4350586826436,14.537139933457889
2026-09-28 19:27:02.989124608,0.11252001953124999,-0.201099609375,10.2417158203125,0.0,-0.0010652644360316954,0.0,359.06052131197544,359.43445840855014,14.537308176254168
2026-09-28 19:27:02.989124608,0.12209619140624998,-0.21067578124999997,10.157924316406248,0.0,0.0,0.0,359.05969880564027,359.43417555801153,14.53717077423633
2026-09-28 19:27:03.004759552,0.07421533203125,-0.18912939453125,10.1746826171875,0.0,0.0,0.0,359.05971462841694,359.4342244637115,14.537331213326821
2026-09-28 19:27:03.004759552,0.13646044921875,-0.19152343749999998,10.196229003906248,0.0,0.0,0.0,359.06012951362027,359.4338294696925,14.537195574561842
2026-09-28 19:27:03.004759552,0.124490234375,-0.20828173828125,10.21059326171875,0.0,-0.0010652644360316954,0.0,359.0595769232458,359.43352939726464,14.53705553695866
2026-09-28 19:27:03.020372992,0.09576171874999999,-0.15321875,10.18665283203125,0.0,0.0,0.0,359.0595728586291,359.4335042345429,14.537216193253116
2026-09-28 19:27:03.020372992,0.1149140625,-0.16997705078124997,10.14356005859375,0.0,0.0,0.0010652644360316954,359.0598144967068,359.4337603306359,14.537679536662031
2026-09-28 19:27:03.035995648,0.10294384765624999,-0.16997705078124997,10.1938349609375,0.0,-0.0010652644360316954,-0.0010652644360316954,359.0595296088896,359.4328384100011,14.536936578835068
2026-09-28 19:27:03.035995648,0.09576171874999999,-0.18673535156249998,10.1651064453125,0.0,0.0,0.0,359.05915236536487,359.4327598235779,14.536489807440935
2026-09-28 19:27:03.035995648,0.11012597656249999,-0.201099609375,10.21059326171875,0.0,-0.0010652644360316954,0.0,359.0586283356296,359.43220986409796,14.536354511177827
2026-09-28 19:27:03.035995648,0.11012597656249999,-0.21785791015624997,10.198623046875,0.0,0.0,0.0,359.0581331037941,359.4321191281533,14.536521924226497
2026-09-28 19:27:03.035995648,0.11970214843749999,-0.17955322265624998,10.21059326171875,0.0,-0.0010652644360316954,0.0,359.05721835115946,359.43229517812307,14.536072370824765
2026-09-28 19:27:03.035995648,0.1149140625,-0.19870556640624998,10.17707666015625,-0.0010652644360316954,-0.0021305288720633907,0.0,359.05662135934193,359.4313171894719,14.536252888343125
2026-09-28 19:27:03.035995648,0.11730810546874999,-0.15561279296875,10.205805175781249,0.0,-0.0010652644360316954,0.0,359.05652297713794,359.4311592594642,14.536416381391861
2026-09-28 19:27:03.035995648,0.11012597656249999,-0.1675830078125,10.1938349609375,-0.0010652644360316954,0.0,0.0,359.05614539811336,359.43136628630305,14.53687977447276
2026-09-28 19:27:03.051624448,0.11012597656249999,-0.20588769531249998,10.22495751953125,0.0,0.0,0.0,359.0563587862063,359.4313042780782,14.537043226348056
2026-09-28 19:27:03.082873600,0.1149140625,-0.16518896484374998,10.167500488281249,0.0,0.0,0.0,359.0562959067189,359.43074024019853,14.537214406389737
2026-09-28 19:27:03.098504704,0.09576171874999999,-0.21067578124999997,10.22016943359375,0.0010652644360316954,0.0,0.0,359.05657681818207,359.4309786309274,14.53706718370328
2026-09-28 19:27:03.098504704,0.07900341796874999,-0.19391748046875,10.21538134765625,0.0,0.0,0.0,359.0561455594935,359.4312718135398,14.536923973206386
2026-09-28 19:27:03.098504704,0.11970214843749999,-0.18673535156249998,10.15313623046875,0.0,-0.0010652644360316954,0.0,359.055744797785,359.43041166174964,14.537100567727336
2026-09-28 19:27:03.098504704,0.09576171874999999,-0.21067578124999997,10.222563476562499,0.0,0.0,0.0,359.055857112338,359.4300544438098,14.53727004302605
2026-09-28 19:27:03.120521728,0.12688427734375,-0.15082470703124998,10.212987304687498,0.0,-0.0010652644360316954,0.0,359.0555773084498,359.4302708412111,14.537435378713347
2026-09-28 19:27:03.126073600,0.11012597656249999,-0.1675830078125,10.167500488281249,0.0,0.0,0.0,359.0557502466236,359.43026357038417,14.537596222820587
2026-09-28 19:27:03.145919232,0.12688427734375,-0.19391748046875,10.2321396484375,0.0,0.0,0.0,359.05566890416986,359.43048682640205,14.5374494877036
2026-09-28 19:27:03.145919232,0.13646044921875,-0.22264599609375,10.22016943359375,0.0,0.0,0.0010652644360316954,359.0557827054543,359.4308338318106,14.538214248715201
2026-09-28 19:27:03.161561088,0.08618554687499999,-0.22264599609375,10.222563476562499,0.0,0.0,0.0,359.05561657325154,359.43086156789667,14.538071363212353
2026-09-28 19:27:03.177175296,0.1005498046875,-0.16518896484374998,10.172288574218749,0.0,-0.0010652644360316954,0.0,359.05494713966186,359.4310539384879,14.537627394487119
2026-09-28 19:27:03.192694016,0.1292783203125,-0.14603662109374999,10.1651064453125,0.0,0.0,0.0,359.0548403866514,359.431560199503,14.53778094410741
2026-09-28 19:27:03.192694016,0.11252001953124999,-0.19152343749999998,10.201017089843749,0.0,0.0,0.0,359.05525523818187,359.4307359500878,14.537650419160322
2026-09-28 19:27:03.192694016,0.10773193359375,-0.18912939453125,10.205805175781249,0.0,0.0,0.0,359.05495472935445,359.4305370413821,14.537510896805285
2026-09-28 19:27:03.192694016,0.13167236328124998,-0.17476513671875,10.22016943359375,0.0,0.0010652644360316954,-0.0010652644360316954,359.0548702800203,359.43083089230646,14.536748998626178
2026-09-28 19:27:03.224050432,0.10294384765624999,-0.19152343749999998,10.18665283203125,0.0,0.0,0.0,359.05499154732627,359.430610213702,14.536913439086671
2026-09-28 19:27:03.239669760,0.1005498046875,-0.21067578124999997,10.17707666015625,0.0,0.0,0.0010652644360316954,359.0547882143455,359.4306786906972,14.537683324783169
2026-09-28 19:27:03.239669760,0.12209619140624998,-0.20349365234374997,10.167500488281249,0.0,0.0,0.0,359.0547998690259,359.4304750520355,14.537543687761472
2026-09-28 19:27:03.255296256,0.11252001953124999,-0.17237109374999998,10.1651064453125,0.0,0.0,0.0,359.05484262271153,359.43064645358396,14.537398705808803
2026-09-28 19:27:03.270920192,0.14603662109374999,-0.18434130859374998,10.18186474609375,0.0,-0.0010652644360316954,0.0,359.054689951531,359.43028762474427,14.537567865809695
2026-09-28 19:27:03.270920192,0.13167236328124998,-0.15082470703124998,10.24889794921875,0.0,0.0,0.0,359.05510454058697,359.43015543341824,14.537422264184826
2026-09-28 19:27:03.270920192,0.15082470703124998,-0.201099609375,10.155530273437499,0.0,-0.0010652644360316954,0.0,359.05506498271404,359.4296246394365,14.536980067868058
2026-09-28 19:27:03.286556928,0.11730810546874999,-0.1963115234375,10.2034111328125,0.0,0.0,0.0,359.05465247594,359.42915931048225,14.536841655245034
2026-09-28 19:27:03.302176512,0.10533789062499999,-0.17715917968749997,10.222563476562499,0.0,0.0,0.0,359.0546829606136,359.4293603792568,14.537307058283975
2026-09-28 19:27:03.317783552,0.10533789062499999,-0.21067578124999997,10.244109863281249,0.0,0.0,0.0,359.0549524869454,359.4290040222865,14.53716990789598
2026-09-28 19:27:03.349051392,0.11970214843749999,-0.20349365234374997,10.22495751953125,0.0,0.0,0.0,359.05440589843306,359.428890925759,14.537029827691763
2026-09-28 19:27:03.349051392,0.11012597656249999,-0.19152343749999998,10.205805175781249,0.0,0.0,0.0,359.05394755792753,359.4287284625563,14.537196939244584
2026-09-28 19:27:03.395913472,0.11252001953124999,-0.19391748046875,10.22016943359375,0.0,-0.0010652644360316954,0.0010652644360316954,359.05339925427216,359.4283409663462,14.537672145388305
2026-09-28 19:27:03.427165184,0.09576171874999999,-0.201099609375,10.1651064453125,0.0,-0.0021305288720633907,0.0,359.05246612585086,359.4273975684974,14.537853057836791
2026-09-28 19:27:03.427165184,0.14364257812499998,-0.17715917968749997,10.201017089843749,0.0,-0.0010652644360316954,0.0,359.0522371529859,359.4263694732323,14.537728041121325
2026-09-28 19:27:03.427165184,0.08379150390625,-0.201099609375,10.155530273437499,0.0,0.0,0.0,359.05243346726496,359.425954309115,14.537586583698841
2026-09-28 19:27:03.442788608,0.10533789062499999,-0.15082470703124998,10.13158984375,0.0,-0.0010652644360316954,0.0,359.0517864320902,359.42602455985434,14.5374474392596
2026-09-28 19:27:03.442788608,0.08857958984374999,-0.17237109374999998,10.2321396484375,0.0,-0.0010652644360316954,0.0,359.05143480972964,359.4260303287172,14.537305343791868
2026-09-28 19:27:03.458411008,0.10773193359375,-0.21306982421874998,10.22495751953125,0.0,0.0,0.0,359.0515358309226,359.42621602871867,14.537469947678696
2026-09-28 19:27:03.458411008,0.12209619140624998,-0.20588769531249998,10.17707666015625,0.0,0.0,0.0,359.0507576082122,359.42628045166896,14.536716981172736
2026-09-28 19:27:03.458411008,0.11012597656249999,-0.19870556640624998,10.205805175781249,-0.0010652644360316954,-0.0010652644360316954,0.0,359.04974251892105,359.4259395397972,14.536583614734402
2026-09-28 19:27:03.458411008,0.0622451171875,-0.201099609375,10.196229003906248,0.0,-0.0010652644360316954,0.0,359.0497150236287,359.4253972261299,14.536751519812022
2026-09-28 19:27:03.458411008,0.1005498046875,-0.22025195312499998,10.1651064453125,0.0,0.0,0.0,359.04979930474786,359.42556016800916,14.536306167964836
2026-09-28 19:27:03.458411008,0.1149140625,-0.17237109374999998,10.205805175781249,0.0,-0.0010652644360316954,0.0,359.0494005523456,359.42514379066796,14.53617266361871
2026-09-28 19:27:03.458411008,0.09815576171875,-0.17476513671875,10.189046874999999,0.0,0.0,0.0,359.04899694041563,359.42543588527593,14.536026069911223
2026-09-28 19:27:03.458411008,0.11252001953124999,-0.19870556640624998,10.167500488281249,0.0,0.0,0.0,359.04928482947804,359.4251761685303,14.535888826922681
2026-09-28 19:27:03.474045440,0.10294384765624999,-0.181947265625,10.21538134765625,0.0,0.0,0.0,359.0489863843944,359.4251613672537,14.536054311496443
2026-09-28 19:27:03.489672192,0.10773193359375,-0.18673535156249998,10.196229003906248,0.0,0.0,0.0,359.0485744517575,359.4252163925873,14.53621286370326
2026-09-28 19:27:03.505304064,0.14364257812499998,-0.1963115234375,10.2704443359375,0.0,0.0,0.0,359.0485523947972,359.42480265645247,14.53607864866159
2026-09-28 19:27:03.505304064,0.13885449218749998,-0.18673535156249998,10.150742187499999,0.0,-0.0010652644360316954,0.0,359.04777701227516,359.4242789105909,14.53625094611469
2026-09-28 19:27:03.520918528,0.09815576171875,-0.19391748046875,10.124407714843748,0.0,0.0,0.0,359.04770956359835,359.4237040673618,14.536114266837815
2026-09-28 19:27:03.520918528,0.08857958984374999,-0.21306982421874998,10.138771972656249,0.0,-0.0010652644360316954,0.0,359.0471329775465,359.42325267924195,14.536287735018947
2026-09-28 19:27:03.536558080,0.09336767578124999,-0.16997705078124997,10.19144091796875,0.0,0.0,0.0,359.04720281976716,359.42328382573277,14.53584256864213
2026-09-28 19:27:03.536558080,0.11730810546874999,-0.181947265625,10.189046874999999,0.0,0.0,0.0,359.04673678639944,359.42339953078726,14.535396572801222
2026-09-28 19:27:03.552170496,0.076609375,-0.16997705078124997,10.205805175781249,0.0,-0.0010652644360316954,0.0,359.04633838263715,359.42291172293807,14.535565199572055
2026-09-28 19:27:03.567785216,0.10533789062499999,-0.20828173828125,10.1746826171875,0.0,0.0,0.0,359.04639299873725,359.4231736087578,14.535422114893535
2026-09-28 19:27:03.583423744,0.1005498046875,-0.19391748046875,10.22016943359375,0.0,0.0,0.0,359.0464257786821,359.4230601429224,14.534977281666018
2026-09-28 19:27:03.583423744,0.09815576171875,-0.22504003906249997,10.2321396484375,0.0,0.0,0.0,359.0461307844053,359.4230294102644,14.535142795026124
2026-09-28 19:27:03.599053312,0.13646044921875,-0.18673535156249998,10.21538134765625,0.0,-0.0010652644360316954,0.0,359.0450017678373,359.42268687385194,14.535010616945039
2026-09-28 19:27:03.614679296,0.12688427734375,-0.19152343749999998,10.19144091796875,0.0,0.0,0.0,359.0448683076803,359.4220138477953,14.534877608375586
2026-09-28 19:27:03.614679296,0.13167236328124998,-0.21067578124999997,10.18186474609375,0.0,-0.0010652644360316954,0.0,359.0448671603384,359.4216734704294,14.534738228093289
2026-09-28 19:27:03.614679296,0.1149140625,-0.19152343749999998,10.217775390624999,0.0,0.0,0.0,359.0445052867165,359.4214449090597,14.534904412438639
2026-09-28 19:27:03.645915904,0.12209619140624998,-0.201099609375,10.251291992187499,0.0,0.0,0.0,359.0442326347195,359.4216585170112,14.535369811147664
2026-09-28 19:27:03.661534720,0.09576171874999999,-0.18673535156249998,10.189046874999999,0.0,0.0,0.0,359.0443804564671,359.42130616830207,14.535234039933256
2026-09-28 19:27:03.677180672,0.14124853515625,-0.201099609375,10.229745605468748,0.0,-0.0010652644360316954,0.0,359.04391489586413,359.42148933251985,14.53539823867316
2026-09-28 19:27:03.724037376,0.15082470703124998,-0.18673535156249998,10.227351562499999,0.0010652644360316954,0.0,0.0,359.0441348136164,359.42181690107833,14.53524644078095
2026-09-28 19:27:03.739657984,0.09576171874999999,-0.18673535156249998,10.205805175781249,0.0,0.0,0.0,359.0438978860303,359.42225348890497,14.535401258680976
2026-09-28 19:27:03.739657984,0.14364257812499998,-0.2154638671875,10.239321777343749,0.0,0.0,0.0,359.044200704131,359.4226065698228,14.53556182595808
2026-09-28 19:27:03.755298304,0.13885449218749998,-0.16997705078124997,10.1746826171875,0.0,0.0,0.0010652644360316954,359.04374334889314,359.4224738434849,14.536029090788533
2026-09-28 19:27:03.755298304,0.13406640625,-0.20349365234374997,10.1746826171875,0.0,0.0,0.0,359.0439487091771,359.42231387538413,14.53649773082128
2026-09-28 19:27:03.770917888,0.12688427734375,-0.17476513671875,10.217775390624999,0.0,0.0,0.0,359.0435712742574,359.42221383335806,14.536664031373428
2026-09-28 19:27:03.770917888,0.10294384765624999,-0.18912939453125,10.22016943359375,0.0,0.0,0.0,359.0430732566101,359.4220414579061,14.536213300261332
2026-09-28 19:27:03.770917888,0.07900341796874999,-0.1963115234375,10.21538134765625,0.0,0.0,0.0010652644360316954,359.0426784833087,359.4223114094304,14.536676895928172
2026-09-28 19:27:03.786544128,0.076609375,-0.1675830078125,10.133983886718749,0.0,0.0,0.0,359.0427313751308,359.4223721083616,14.53684204387167
2026-09-28 19:27:03.786544128,0.10773193359375,-0.22025195312499998,10.16989453125,0.0,0.0,0.0,359.0425416557849,359.42341704332324,14.536691343803982
2026-09-28 19:27:03.786544128,0.14124853515625,-0.16518896484374998,10.20819921875,0.0,-0.0010652644360316954,0.0010652644360316954,359.0423498269112,359.42346567519655,14.53716096352351
2026-09-28 19:27:03.786544128,0.11252001953124999,-0.17955322265624998,10.222563476562499,-0.0010652644360316954,-0.0010652644360316954,0.0,359.04173806730955,359.4229337532246,14.537023580836692
2026-09-28 19:27:03.786544128,0.067033203125,-0.25137451171874997,10.172288574218749,0.0,0.0,0.0,359.04162957417213,359.4231049498976,14.536572012419692
2026-09-28 19:27:03.802184192,0.09336767578124999,-0.1675830078125,10.19144091796875,0.0,0.0,0.0,359.0409722224401,359.423629112219,14.53673612412027
2026-09-28 19:27:03.817794304,0.11252001953124999,-0.18912939453125,10.1651064453125,0.0,-0.0010652644360316954,0.0010652644360316954,359.04084216332024,359.42359347941306,14.537205144198802
2026-09-28 19:27:03.880299264,0.14364257812499998,-0.17715917968749997,10.20819921875,0.0,0.0,0.0,359.0408140228222,359.4235434536733,14.537367909406592
2026-09-28 19:27:03.895913984,0.12688427734375,-0.201099609375,10.201017089843749,0.0,0.0,0.0,359.04071207964836,359.42286131317076,14.53753661211942
2026-09-28 19:27:03.895913984,0.1149140625,-0.181947265625,10.184258789062499,0.0,0.0,0.0,359.04078189334103,359.4228547613711,14.537701495935828
2026-09-28 19:27:03.911544320,0.07421533203125,-0.18912939453125,10.222563476562499,0.0,0.0,0.0010652644360316954,359.0406176464256,359.4232744791873,14.538165773288535
2026-09-28 19:27:03.911544320,0.1149140625,-0.19152343749999998,10.217775390624999,0.0,0.0,0.0,359.04018845154553,359.4237600496027,14.538324431220355
2026-09-28 19:27:03.927178240,0.11012597656249999,-0.17715917968749997,10.21059326171875,0.0,0.0010652644360316954,0.0,359.0400246578604,359.4238609229158,14.538483425157253
2026-09-28 19:27:03.927178240,0.07900341796874999,-0.18434130859374998,10.222563476562499,0.0,0.0,0.0,359.04011423832236,359.4237029502258,14.538343142729254
2026-09-28 19:27:03.942791936,0.12209619140624998,-0.22264599609375,10.18186474609375,0.0,0.0010652644360316954,0.0,359.0399400120325,359.42443410648366,14.538192151895887
2026-09-28 19:27:03.942791936,0.0813974609375,-0.20588769531249998,10.196229003906248,0.0,-0.0021305288720633907,0.0,359.03917388942324,359.42360131603647,14.53836959495267
2026-09-28 19:27:03.942791936,0.10294384765624999,-0.18912939453125,10.15313623046875,0.0,0.0,0.0,359.03850658482,359.4239188744767,14.538225660105175
2026-09-28 19:27:03.942791936,0.10294384765624999,-0.15800683593749998,10.19144091796875,0.0,0.0,0.0,359.03883726423186,359.4235343564763,14.538393131176612
2026-09-28 19:27:03.942791936,0.09815576171875,-0.22264599609375,10.196229003906248,0.0,0.0,0.0,359.03872638628803,359.42304336997586,14.538256859334759
2026-09-28 19:27:03.942791936,0.1005498046875,-0.19870556640624998,10.229745605468748,0.0,0.0,0.0,359.03828191847276,359.422736753275,14.538123983520943
2026-09-28 19:27:03.942791936,0.11252001953124999,-0.19391748046875,10.18186474609375,0.0,0.0,0.0,359.03860630577043,359.42241805511844,14.537684411227517
2026-09-28 19:27:03.958425088,0.09815576171875,-0.19152343749999998,10.15313623046875,0.0,0.0,0.0,359.03906014417987,359.42224364869,14.53754344261078
2026-09-28 19:27:03.974061312,0.0909736328125,-0.1675830078125,10.198623046875,0.0,0.0,0.0,359.0389607313746,359.42209882923174,14.537406998722327
2026-09-28 19:27:04.005302784,0.13646044921875,-0.162794921875,10.201017089843749,0.0010652644360316954,0.0010652644360316954,0.0,359.03955079804234,359.422677318396,14.537559557763688
2026-09-28 19:27:04.005302784,0.10533789062499999,-0.20828173828125,10.19144091796875,0.0,0.0,0.0,359.03947659008566,359.4227382504088,14.537717733503705
2026-09-28 19:27:04.020907520,0.11012597656249999,-0.18673535156249998,10.150742187499999,0.0,-0.0021305288720633907,0.0,359.03876811239104,359.4217314860371,14.537594616708947
2026-09-28 19:27:04.020907520,0.08618554687499999,-0.19391748046875,10.21059326171875,0.0,0.0,0.0,359.03900831096524,359.4216509138368,14.537452814735216
2026-09-28 19:27:04.020907520,0.1149140625,-0.201099609375,10.167500488281249,0.0,-0.0010652644360316954,0.0010652644360316954,359.0387599110497,359.42130711336716,14.537928150899631
2026-09-28 19:27:04.020907520,0.11730810546874999,-0.18673535156249998,10.201017089843749,0.0,0.0,0.0,359.038351036372,359.4219238986091,14.538081631319612
2026-09-28 19:27:04.036541440,0.11252001953124999,-0.17715917968749997,10.217775390624999,0.0,0.0,-0.0010652644360316954,359.03773823796604,359.42202717205504,14.537326899016232
2026-09-28 19:27:04.083410176,0.11730810546874999,-0.181947265625,10.16989453125,0.0,0.0010652644360316954,0.0,359.037830481933,359.4220512719767,14.536873268860335
2026-09-28 19:27:04.114661632,0.11252001953124999,-0.19152343749999998,10.21538134765625,0.0010652644360316954,0.0,0.0,359.03787030459904,359.422233896335,14.536423257353318
2026-09-28 19:27:04.130289152,0.09815576171875,-0.1963115234375,10.18186474609375,0.0,0.0010652644360316954,0.0,359.03792345786013,359.4222117926912,14.536278206120965
2026-09-28 19:27:04.130289152,0.13167236328124998,-0.20828173828125,10.184258789062499,0.0,-0.0021305288720633907,0.0,359.03733392938307,359.42177409657097,14.536143638694986
2026-09-28 19:27:04.145910784,0.0813974609375,-0.17476513671875,10.2034111328125,0.0,0.0,0.0,359.0371312166727,359.42186906922814,14.535998025066293
2026-09-28 19:27:04.145910784,0.12209619140624998,-0.2154638671875,10.18186474609375,0.0,0.0010652644360316954,0.0,359.0375104181901,359.4225453709864,14.535847564864094
2026-09-28 19:27:04.145910784,0.0622451171875,-0.22504003906249997,10.2034111328125,0.0,0.0,0.0,359.03708456135195,359.4226269560717,14.53570418443992
2026-09-28 19:27:04.145910784,0.11730810546874999,-0.201099609375,10.150742187499999,0.0,0.0,0.0,359.0367516429213,359.4233501592029,14.535859879312858
2026-09-28 19:27:04.176269568,0.10773193359375,-0.181947265625,10.150742187499999,0.0,0.0,0.0,359.03680843117627,359.42336524891965,14.536019815719001
2026-09-28 19:27:04.176269568,0.13406640625,-0.22743408203124998,10.227351562499999,-0.0010652644360316954,-0.0010652644360316954,0.0,359.035669205783,359.42276265628556,14.536494863556321
2026-09-28 19:27:04.176269568,0.12209619140624998,-0.181947265625,10.2321396484375,0.0,-0.0010652644360316954,0.0,359.034897973365,359.42171542558395,14.536062249517654
2026-09-28 19:27:04.193356800,0.11730810546874999,-0.20828173828125,10.18665283203125,0.0,0.0,0.0010652644360316954,359.0345667096723,359.42210200539074,14.536525130416658
2026-09-28 19:27:04.193356800,0.10773193359375,-0.17715917968749997,10.15313623046875,0.0,0.0,0.0,359.03409266233126,359.4216402378342,14.536392563914852
2026-09-28 19:27:04.193356800,0.1005498046875,-0.20588769531249998,10.19144091796875,0.0,0.0,0.0,359.03444159500305,359.42117228871393,14.535952797908731
2026-09-28 19:27:04.209093376,0.11012597656249999,-0.18673535156249998,10.2034111328125,0.0,0.0,0.0,359.0334742383884,359.42118748456204,14.535813985018972
2026-09-28 19:27:04.209093376,0.1149140625,-0.23222216796874998,10.18665283203125,0.0,-0.0010652644360316954,0.0,359.03350718706156,359.42119885796683,14.535976256633525
2026-09-28 19:27:04.209093376,0.11012597656249999,-0.2154638671875,10.179470703124998,0.0,0.0,0.0,359.03324350180065,359.42083030470246,14.53644665491405
2026-09-28 19:27:04.209093376,0.12688427734375,-0.17955322265624998,10.284808593749998,0.0,0.0,0.0,359.03262875077826,359.42055813842325,14.536307319739409
2026-09-28 19:27:04.224710912,0.10773193359375,-0.18912939453125,10.117225585937499,0.0,0.0,0.0,359.0323340831125,359.4199492278816,14.53647808889427
2026-09-28 19:27:04.255984128,0.12688427734375,-0.16518896484374998,10.150742187499999,0.0,0.0,0.0,359.0324091030239,359.41991523562984,14.536643098039768
2026-09-28 19:27:04.271586560,0.1292783203125,-0.19152343749999998,10.17707666015625,0.0,-0.0010652644360316954,0.0,359.0320945867372,359.41954832141914,14.536505917168354
2026-09-28 19:27:04.271586560,0.10533789062499999,-0.18673535156249998,10.21059326171875,0.0,-0.0021305288720633907,0.0,359.03191639123236,359.4186934718699,14.536375561691749
2026-09-28 19:27:04.287228160,0.10294384765624999,-0.21067578124999997,10.133983886718749,0.0,0.0,0.0,359.0313688126123,359.41879572168926,14.536230386132775
2026-09-28 19:27:04.287228160,0.12688427734375,-0.181947265625,10.1938349609375,0.0,0.0,0.0,359.03164406414254,359.41835858777364,14.53609645268056
2026-09-28 19:27:04.287228160,0.08379150390625,-0.2154638671875,10.189046874999999,0.0,0.0010652644360316954,0.0,359.0317436137231,359.4186791295435,14.536250869429503
2026-09-28 19:27:04.287228160,0.10773193359375,-0.17715917968749997,10.179470703124998,0.0,0.0,0.0,359.03106050052605,359.41899082872027,14.536107099172414
2026-09-28 19:27:04.302839296,0.10294384765624999,-0.21306982421874998,10.217775390624999,0.0,0.0,0.0,359.0308465335353,359.41856916244615,14.536276968856166
2026-09-28 19:27:04.318465280,0.12688427734375,-0.19391748046875,10.272838378906249,0.0,0.0,0.0,359.0305273061162,359.4185594062682,14.536442774807863
2026-09-28 19:27:04.334100480,0.10294384765624999,-0.181947265625,10.196229003906248,0.0,0.0,0.0,359.0300459365395,359.4191123881459,14.536596812895274
2026-09-28 19:27:04.365345536,0.1005498046875,-0.229828125,10.217775390624999,0.0,-0.0010652644360316954,0.0,359.0295934798209,359.41908711436946,14.536760885499653
2026-09-28 19:27:04.365345536,0.11012597656249999,-0.20588769531249998,10.184258789062499,0.0,0.0,0.0,359.02974692672495,359.41921879804187,14.536619950213561
2026-09-28 19:27:04.365345536,0.10294384765624999,-0.181947265625,10.1268017578125,0.0,-0.0010652644360316954,0.0,359.0295596798872,359.41903415390783,14.53678439524877
2026-09-28 19:27:04.365345536,0.1292783203125,-0.20828173828125,10.172288574218749,0.0,0.0,0.0,359.02909899264785,359.4191025481135,14.536643508860745
2026-09-28 19:27:04.365345536,0.13167236328124998,-0.1675830078125,10.17707666015625,-0.0010652644360316954,0.0,0.0,359.02817055934975,359.4192357984957,14.536193970527181
2026-09-28 19:27:04.396601856,0.10294384765624999,-0.20828173828125,10.162712402343749,0.0,-0.0021305288720633907,0.0,359.0281677022933,359.41847877865337,14.53636690779057
2026-09-28 19:27:04.396601856,0.1292783203125,-0.16518896484374998,10.157924316406248,0.0,-0.0010652644360316954,0.0,359.0276300607387,359.4181175374315,14.536536946765885
2026-09-28 19:27:04.412216576,0.09336767578124999,-0.16997705078124997,10.2417158203125,0.0,0.0,0.0010652644360316954,359.02778437210924,359.41751959186337,14.536706290761426
2026-09-28 19:27:04.443472896,0.11730810546874999,-0.23222216796874998,10.21059326171875,0.0,-0.0010652644360316954,0.0,359.0272876420679,359.4175926065066,14.536870819602767
2026-09-28 19:27:04.443472896,0.07421533203125,-0.201099609375,10.21059326171875,0.0,0.0,0.0,359.02717792861233,359.4170159222724,14.536432734038376
2026-09-28 19:27:04.459082240,0.09336767578124999,-0.181947265625,10.212987304687498,0.0,-0.0010652644360316954,0.0,359.0269280359156,359.4165883162665,14.536303057834695
2026-09-28 19:27:04.459082240,0.12209619140624998,-0.18912939453125,10.21538134765625,0.0010652644360316954,0.0,0.0010652644360316954,359.0271232776305,359.41664951541264,14.536771894641632
2026-09-28 19:27:04.474716416,0.0909736328125,-0.18673535156249998,10.167500488281249,0.0,0.0,0.0,359.02718528843366,359.4163074059595,14.536631861304329
2026-09-28 19:27:04.474716416,0.1292783203125,-0.18434130859374998,10.2034111328125,0.0,0.0,0.0010652644360316954,359.0269419969446,359.4165944834361,14.537096929112073
2026-09-28 19:27:04.490336512,0.10294384765624999,-0.15800683593749998,10.198623046875,0.0,0.0,0.0,359.0270644765481,359.4166660157215,14.537261433192374
2026-09-28 19:27:04.510899968,0.14364257812499998,-0.15321875,10.141166015624998,0.0,0.0,0.0,359.02722669242564,359.4165061615994,14.537117286092911
2026-09-28 19:27:04.510899968,0.12688427734375,-0.21306982421874998,10.184258789062499,0.0,0.0,0.0,359.02759691791346,359.41617839512406,14.536669123008846
2026-09-28 19:27:04.537877248,0.124490234375,-0.16997705078124997,10.1651064453125,0.0,0.0,0.0,359.02715895559555,359.4155469950645,14.536841252817513
2026-09-28 19:27:04.537877248,0.10533789062499999,-0.18673535156249998,10.21059326171875,0.0,-0.0021305288720633907,0.0010652644360316954,359.02708464667944,359.4148465895208,14.537625235462716
2026-09-28 19:27:04.537877248,0.07421533203125,-0.17476513671875,10.19144091796875,0.0,-0.0010652644360316954,0.0,359.0268941486784,359.4144082725627,14.537794937383085
2026-09-28 19:27:04.537877248,0.08379150390625,-0.17955322265624998,10.16989453125,0.0,-0.0010652644360316954,0.0,359.0268535272836,359.41456796716886,14.538263136694894
2026-09-28 19:27:04.553616384,0.09576171874999999,-0.18912939453125,10.162712402343749,0.0,0.0,0.0,359.02675987989034,359.41506520745105,14.538421419328705
2026-09-28 19:27:04.569236736,0.13167236328124998,-0.18912939453125,10.22016943359375,0.0,0.0,0.0,359.026875210623,359.4144667709958,14.538896352861427
2026-09-28 19:27:04.569236736,0.09576171874999999,-0.181947265625,10.17707666015625,0.0,0.0,0.0,359.0269870729225,359.4139540463143,14.538761022318358
2026-09-28 19:27:04.584862720,0.12209619140624998,-0.20588769531249998,10.1938349609375,0.0,0.0,0.0,359.02669413792415,359.4134907963005,14.538626767887308
2026-09-28 19:27:04.600480256,0.09336767578124999,-0.162794921875,10.201017089843749,0.0,0.0,0.0,359.0264322270647,359.4135952774258,14.538786887200171
2026-09-28 19:27:04.616125440,0.09576171874999999,-0.19391748046875,10.18665283203125,0.0,-0.0010652644360316954,0.0010652644360316954,359.02673167900707,359.4129253186336,14.53957022966043
2026-09-28 19:27:04.616125440,0.12688427734375,-0.20828173828125,10.217775390624999,0.0,-0.0021305288720633907,0.0,359.026529321779,359.4127017149438,14.539129928838264
2026-09-28 19:27:04.616125440,0.10294384765624999,-0.18434130859374998,10.189046874999999,0.0,0.0,0.0,359.02582234741857,359.412466807995,14.5392914040009
2026-09-28 19:27:04.631738624,0.13646044921875,-0.16040087890625,10.2321396484375,0.0,0.0,0.0,359.0256681857813,359.4126129529082,14.539450469708193
2026-09-28 19:27:04.631738624,0.1005498046875,-0.17476513671875,10.2034111328125,0.0,-0.0010652644360316954,0.0,359.0253997163998,359.4119008427077,14.539617791616958
2026-09-28 19:27:04.647264768,0.0813974609375,-0.22504003906249997,10.1746826171875,0.0,0.0,0.0,359.02593209343814,359.4123046145794,14.540081171602207
2026-09-28 19:27:04.662987008,0.08857958984374999,-0.19391748046875,10.22016943359375,0.0,-0.0010652644360316954,0.0,359.0251393887672,359.41179981176623,14.540253943586812
2026-09-28 19:27:04.694236672,0.10773193359375,-0.19391748046875,10.184258789062499,0.0,0.0,0.0010652644360316954,359.02497446760856,359.41176242112846,14.540418309001568
2026-09-28 19:27:04.694236672,0.076609375,-0.19152343749999998,10.19144091796875,0.0,0.0,0.0,359.0243684370459,359.4114049544882,14.54058599694538
2026-09-28 19:27:04.694236672,0.12209619140624998,-0.17715917968749997,10.196229003906248,0.0,0.0,0.0,359.0248614164544,359.41202071537464,14.540126145017837
2026-09-28 19:27:04.709860352,0.11012597656249999,-0.1675830078125,10.25368603515625,0.0,-0.0010652644360316954,0.0,359.0247230390425,359.4119550240233,14.53968003021065
2026-09-28 19:27:04.709860352,0.09336767578124999,-0.17715917968749997,10.22495751953125,0.0,-0.0010652644360316954,0.0,359.0243224659934,359.4119775592838,14.539538575679295
2026-09-28 19:27:04.709860352,0.11012597656249999,-0.15561279296875,10.205805175781249,0.0,0.0,0.0,359.02455867672825,359.4119934780352,14.539701796362682
2026-09-28 19:27:04.725482752,0.14124853515625,-0.181947265625,10.217775390624999,0.0,-0.0021305288720633907,0.0,359.0245269402527,359.4112324746973,14.539569953020889
2026-09-28 19:27:04.741112832,0.10773193359375,-0.20349365234374997,10.25368603515625,0.0,-0.0010652644360316954,0.0010652644360316954,359.024046182311,359.4104883528305,14.540049943984611
2026-09-28 19:27:04.756758528,0.11252001953124999,-0.17955322265624998,10.17707666015625,0.0,-0.0010652644360316954,0.0,359.0232683692046,359.41052295098996,14.539607324766315
2026-09-28 19:27:04.772350976,0.1484306640625,-0.1675830078125,10.184258789062499,0.0,0.0,0.0,359.023427968531,359.41093978780594,14.539763028265424
2026-09-28 19:27:04.772350976,0.07900341796874999,-0.18673535156249998,10.160318359375,0.0010652644360316954,0.0,0.0,359.0238205050263,359.4105523324045,14.54022991114227
2026-09-28 19:27:04.787996416,2.6693579101562497,5.06818896484375,9.209883300781248,-0.07350324608618697,0.2460760847233216,0.2258360604387194,359.00150464678086,359.4925766347501,14.606347417523276
2026-09-28 19:27:04.787996416,1.8960820312499997,0.6942724609375,10.239321777343749,0.0,0.25992452239173364,1.5265239368334194,358.9586943707866,359.65619128393115,15.296567728624824
2026-09-28 19:27:04.819238656,-2.43474169921875,-2.0109960937499998,8.92259814453125,0.7552724851464719,-0.47084688072600933,1.7065536265227759,359.2011475114554,359.4165933976385,16.278934622969665
2026-09-28 19:27:04.819238656,-1.04140869140625,-0.48120263671874997,12.444235351562499,-0.8255799379245639,0.15446334322459582,1.2591425633894637,358.9515372407889,359.49247884488665,17.080306139557205
2026-09-28 19:27:04.850476800,-0.69666650390625,-1.0701372070312498,9.846698730468749,0.15978966540475428,-0.022370553156665602,1.24422886128502,359.02711178560367,359.4965725185816,17.781097336937666
2026-09-28 19:27:04.850476800,-0.41177539062499996,-0.14364257812499998,8.09904736328125,0.2247707960026877,-0.006391586616190171,1.1728561440708964,359.00373922052114,359.5136627937563,18.448663420473988
2026-09-28 19:27:04.850476800,0.21306982421874998,-0.59372265625,10.500272460937499,0.02769687533682408,-0.0021305288720633907,1.1440940042980408,358.98220559878155,359.52982381958816,19.110971934093858
2026-09-28 19:27:04.866110208,0.4979609375,-0.7206069335937499,10.35423583984375,0.0,-0.0010652644360316954,1.0514159983632831,358.9714450082312,359.5362942453509,19.72758415147037
2026-09-28 19:27:04.866110208,-0.1005498046875,-0.9336767578124999,10.6247626953125,-0.0010652644360316954,-0.004261057744126781,0.9768474878410646,358.96429397614554,359.54171808286145,20.29995557738102
2026-09-28 19:27:04.866110208,-0.17955322265624998,-1.2401142578125,10.698978027343749,-0.04048004856920442,0.0031957933080950856,0.7318366675537746,358.95496826785023,359.55266726376726,20.765897546450713
2026-09-28 19:27:04.866110208,0.67272607421875,-0.83073291015625,10.217775390624999,-0.0021305288720633907,-0.0021305288720633907,0.272707695624114,358.9460022832179,359.5536828417177,20.990162616052775
2026-09-28 19:27:04.881734912,0.07182128906249999,-0.162794921875,10.256080078124999,0.0,0.0,0.0010652644360316954,358.94208603573367,359.55065300940555,21.00895972774243
2026-09-28 19:27:04.897363200,0.13885449218749998,-0.20588769531249998,10.2034111328125,0.0031957933080950856,0.0,0.0,358.94106168052485,359.5511866701221,21.009111813396164
2026-09-28 19:27:04.912982272,0.09815576171875,-0.22264599609375,10.17707666015625,-0.004261057744126781,0.0,0.0,358.94050101658223,359.5504829354377,21.00897448030883
2026-09-28 19:27:04.928613120,0.07900341796874999,-0.15321875,10.205805175781249,0.0,0.0,0.0010652644360316954,358.94095191017146,359.54982668468364,21.009144003019905
2026-09-28 19:27:04.944236800,0.12209619140624998,-0.18673535156249998,10.179470703124998,0.0,0.0,0.0,358.94087274203815,359.54947034675484,21.009615618148132
2026-09-28 19:27:04.944236800,0.1005498046875,-0.23222216796874998,10.212987304687498,-0.0010652644360316954,-0.0010652644360316954,0.0,358.94057786579157,359.54896124048264,21.009783668848627
2026-09-28 19:27:04.944236800,0.11970214843749999,-0.162794921875,10.155530273437499,0.0,0.0,0.0,358.9404695570312,359.54904933115074,21.009943722834183
2026-09-28 19:27:04.960123904,0.10773193359375,-0.11970214843749999,10.25368603515625,0.0,0.0,0.0,358.9404960429238,359.5487740083318,21.009800981912107
2026-09-28 19:27:04.960123904,0.09336767578124999,-0.18912939453125,10.212987304687498,0.0,0.0,0.0,358.94070599332457,359.54818639428044,21.009662484225036
2026-09-28 19:27:04.975842048,0.0813974609375,-0.181947265625,10.1938349609375,0.0,0.0,0.0010652644360316954,358.94057338881873,359.54780052844603,21.01043634648242
2026-09-28 19:27:05.038455808,0.13646044921875,-0.22025195312499998,10.1938349609375,0.0,0.0,0.0,358.94058808523556,359.5474224271368,21.010293715730693
2026-09-28 19:27:05.054080512,0.09576171874999999,-0.22504003906249997,10.2800205078125,0.0,0.0,0.0,358.9404706308938,359.5471780058874,21.010148874947486
2026-09-28 19:27:05.085327616,0.09576171874999999,-0.229828125,10.133983886718749,0.0,0.0,0.0,358.94051413248803,359.5465020353803,21.010019674499176
2026-09-28 19:27:05.116582912,0.1292783203125,-0.18434130859374998,10.21059326171875,0.0,0.0,0.0,358.9400694222826,359.5466392611189,21.00987506891474
2026-09-28 19:27:05.132206592,0.1149140625,-0.201099609375,10.184258789062499,0.0,-0.0010652644360316954,0.0,358.9400833931008,359.5452885225974,21.010054437991425
2026-09-28 19:27:05.132206592,0.11012597656249999,-0.201099609375,10.20819921875,0.0,0.0,0.0,358.9402171782604,359.5445039292381,21.009918876991435
2026-09-28 19:27:05.132206592,0.10533789062499999,-0.1963115234375,10.117225585937499,0.0,0.0,-0.0010652644360316954,358.94035836760537,359.5438299813008,21.009170627227082
2026-09-28 19:27:05.132206592,0.0813974609375,-0.23701025390624997,10.14356005859375,0.0,0.0010652644360316954,0.0,358.9403648370681,359.5440124841069,21.00902233177472
2026-09-28 19:27:05.132206592,0.11730810546874999,-0.20349365234374997,10.256080078124999,0.0,-0.0010652644360316954,0.0,358.94001878201055,359.54372602646134,21.009187606298013
2026-09-28 19:27:05.147919360,0.1292783203125,-0.18434130859374998,10.21538134765625,0.0,0.0,0.0,358.94004028770047,359.5431261556048,21.00935803247074
2026-09-28 19:27:05.147919360,0.12688427734375,-0.18912939453125,10.184258789062499,0.0,0.0,0.0,358.9403370198472,359.5419040059156,21.00953190152426
2026-09-28 19:27:05.147919360,0.11012597656249999,-0.22743408203124998,10.21538134765625,0.0,0.0,0.0,358.9407513207173,359.54124649442804,21.009394121552116
2026-09-28 19:27:05.163454464,0.12209619140624998,-0.23701025390624997,10.14834814453125,0.0,0.0,0.0,358.9405097486951,359.5412924311796,21.009261542451966
2026-09-28 19:27:05.163454464,0.162794921875,-0.20349365234374997,10.15313623046875,0.0,-0.0010652644360316954,0.0,358.9397782591592,359.5409118002562,21.009122454068155
2026-09-28 19:27:05.163454464,0.13406640625,-0.20349365234374997,10.272838378906249,0.0,0.0,0.0,358.9400269927342,359.5402392592268,21.00867533231781
2026-09-28 19:27:05.163454464,0.13167236328124998,-0.17955322265624998,10.2321396484375,0.0,0.0,0.0010652644360316954,358.93984024640326,359.5398208970581,21.008839477792765
2026-09-28 19:27:05.194703360,0.11012597656249999,-0.20588769531249998,10.212987304687498,0.0,0.0,0.0,358.9395042572829,359.53968675739674,21.00869155017213
