Timestamp,ax,ay,az,gx,gy,gz,roll,pitch,yaw
2026-09-29 19:00:15.305955584,-0.0622451171875,-0.30164941406249995,10.129195800781249,0.0,0.0,0.0010652644360316954,358.3335207132439,0.33638476908136716,104.68566894478057
2026-09-29 19:00:15.705816064,-0.01915234375,-0.28489111328125,10.198623046875,0.0,-0.0021305288720633907,0.0,358.33332004419697,0.33621651501753574,104.68551078241309
2026-09-29 19:00:15.705816064,-0.10294384765624999,-0.3112255859375,10.138771972656249,0.0,-0.0010652644360316954,0.0,358.33323175865473,0.3356958182934806,104.68596345628762
2026-09-29 19:00:15.721443072,-0.05027490234375,-0.28728515624999995,10.160318359375,0.0,-0.0010652644360316954,0.0,358.33312371666665,0.33568409426130624,104.68611083013678
2026-09-29 19:00:15.722187008,-0.05745703125,-0.30883154296875,10.1938349609375,0.0,0.0010652644360316954,0.0,358.33338173369077,0.3360388708589905,104.68654598987294
2026-09-29 19:00:15.722481408,-0.028728515625,-0.26573876953125,10.234533691406249,0.0,0.0,0.0,358.3336995487,0.33669838372744443,104.68697081048275
2026-09-29 19:00:15.723318784,-0.05745703125,-0.29925537109375,10.117225585937499,0.0,0.0,0.0,358.3345470115404,0.33665568310290855,104.68711149275877
2026-09-29 19:00:15.723318784,-0.055062988281249996,-0.27052685546875,10.150742187499999,0.0,0.0,0.0,358.3349294554834,0.33664496038236114,104.68724933092997
2026-09-29 19:00:15.723318784,-0.04548681640625,-0.28728515624999995,10.229745605468748,0.0,0.0,0.0,358.33552514100086,0.33687314634306775,104.68708526266506
2026-09-29 19:00:15.723318784,-0.07182128906249999,-0.28728515624999995,10.179470703124998,0.0,0.0,0.0,358.33611331520837,0.3367343884354259,104.68752951089424
2026-09-29 19:00:15.723318784,-0.04069873046875,-0.28728515624999995,10.15313623046875,0.0,-0.0010652644360316954,0.0,358.33657367403146,0.33603986731923774,104.68799952805098
2026-09-29 19:00:15.723318784,0.011970214843749999,-0.31601367187499996,10.201017089843749,0.0,0.0,0.0,358.3371622536692,0.33596172034629407,104.68813875655778
2026-09-29 19:00:15.723318784,-0.01675830078125,-0.3064375,10.22016943359375,0.0,-0.0010652644360316954,0.0,358.33715485885733,0.33538175377215007,104.68797999161383
2026-09-29 19:00:15.723318784,-0.05027490234375,-0.30164941406249995,10.229745605468748,0.0,0.0,-0.0010652644360316954,358.3373802416196,0.3347817901386412,104.6875175138331
2026-09-29 19:00:15.723318784,-0.04069873046875,-0.32798388671874995,10.212987304687498,0.0,0.0,0.0,358.33716937920593,0.3349331871246306,104.6873504811191
2026-09-29 19:00:15.723318784,-0.026334472656249996,-0.296861328125,10.184258789062499,0.0,-0.0010652644360316954,0.0,358.33736864603725,0.3347040293365448,104.6868860900808
2026-09-29 19:00:15.723318784,-0.0622451171875,-0.29207324218749997,10.2321396484375,0.0,0.0,0.0,358.33775120645987,0.33434495458097635,104.68733794736985
2026-09-29 19:00:15.723318784,-0.06942724609374999,-0.29925537109375,10.19144091796875,-0.0010652644360316954,-0.0010652644360316954,0.0,358.33719854600383,0.3340774807425831,104.68779149174203
2026-09-29 19:00:15.723318784,-0.067033203125,-0.30404345703124996,10.1938349609375,0.0,-0.0010652644360316954,0.0,358.3377526400453,0.3339348119492696,104.68793928865824
2026-09-29 19:00:15.723318784,-0.01675830078125,-0.28489111328125,10.17707666015625,0.0,-0.0010652644360316954,0.0,358.33805789701955,0.33402655993560626,104.68838355451408
2026-09-29 19:00:15.723318784,-0.05027490234375,-0.31601367187499996,10.162712402343749,0.0,0.0,0.0,358.3378436730733,0.33340384594065936,104.68883736483572
2026-09-29 19:00:15.723318784,-0.059851074218749994,-0.31601367187499996,10.19144091796875,0.0,-0.0010652644360316954,0.0,358.3375767290867,0.3331700002043889,104.68898391236901
2026-09-29 19:00:15.723318784,-0.076609375,-0.30164941406249995,10.138771972656249,0.0,0.0,0.0,358.33750602097416,0.3335468181899214,104.68911213143687
2026-09-29 19:00:15.723318784,-0.05745703125,-0.27052685546875,10.196229003906248,0.0010652644360316954,0.0,-0.0010652644360316954,358.3378939866739,0.3341677046143691,104.68802105427255
2026-09-29 19:00:15.723318784,-0.055062988281249996,-0.26573876953125,10.21059326171875,0.0,0.0,0.0,358.3382384209734,0.3351206655572552,104.68843912647083
2026-09-29 19:00:15.723318784,-0.076609375,-0.27770898437499997,10.141166015624998,0.0,0.0,0.0,358.3389294779113,0.33509858481034865,104.68827382609508
2026-09-29 19:00:15.723318784,-0.023940429687499997,-0.258556640625,10.1651064453125,0.0,0.0,-0.0010652644360316954,358.3393876563372,0.3350667949089269,104.6881178458177
2026-09-29 19:00:15.723318784,-0.076609375,-0.33756005859375,10.196229003906248,0.0,-0.0010652644360316954,0.0,358.339697605633,0.334912077931299,104.68826599863391
2026-09-29 19:00:15.737823488,-0.05266894531249999,-0.27770898437499997,10.2321396484375,0.0,0.0,0.0,358.34006202041036,0.3348303365267278,104.68871773336879
2026-09-29 19:00:15.737823488,-0.08379150390625,-0.3064375,10.11483154296875,0.0,0.0,0.0,358.3400009312378,0.3354531183884102,104.6888389159197
2026-09-29 19:00:15.737823488,-0.11012597656249999,-0.32319580078125,10.1938349609375,-0.0010652644360316954,0.0,0.0,358.3389917089195,0.33603829583324996,104.6889670235631
2026-09-29 19:00:15.737823488,-0.028728515625,-0.29207324218749997,10.162712402343749,0.0,0.0,0.0,358.338744094188,0.3363999671482251,104.68879972196676
2026-09-29 19:00:15.737823488,-0.05745703125,-0.27770898437499997,10.11961962890625,0.0,0.0,0.0,358.3389419530112,0.33619850445533683,104.68924352362173
2026-09-29 19:00:15.737823488,-0.0335166015625,-0.28967919921874996,10.1363779296875,0.0,-0.0010652644360316954,0.0,358.3390474941144,0.335736011932743,104.68939224583637
2026-09-29 19:00:15.737823488,-0.028728515625,-0.29207324218749997,10.236927734375,-0.0010652644360316954,-0.0010652644360316954,0.0,358.33855740851556,0.3353802757458648,104.68953926416724
2026-09-29 19:00:15.737823488,-0.06463916015625,-0.296861328125,10.133983886718749,0.0,0.0,0.0,358.338649484023,0.3353277659060601,104.6896772441775
2026-09-29 19:00:15.737823488,-0.05266894531249999,-0.28489111328125,10.16989453125,0.0,0.0,0.0,358.3385322725587,0.3356217982708282,104.68980697140564
2026-09-29 19:00:15.737823488,-0.011970214843749999,-0.3112255859375,10.14834814453125,0.0,0.0,-0.0010652644360316954,358.3389668168305,0.33540732461530254,104.68934572798148
2026-09-29 19:00:15.737823488,-0.0335166015625,-0.32798388671874995,10.14356005859375,0.0,0.0,0.0,358.3385457939521,0.33574564739993545,104.68915971395822
2026-09-29 19:00:15.737823488,-0.01675830078125,-0.29207324218749997,10.1651064453125,0.0,-0.0010652644360316954,-0.0010652644360316954,358.33843599341316,0.3353195549104363,104.68869700625604
2026-09-29 19:00:15.737823488,-0.011970214843749999,-0.29925537109375,10.16989453125,0.0,-0.0010652644360316954,0.0,358.33831225438786,0.33479516421223965,104.6885392209146
2026-09-29 19:00:15.737823488,-0.06942724609374999,-0.31361962890624995,10.122013671875,0.0,0.0,0.0,358.33817099148513,0.33480714094401137,104.68805873074102
2026-09-29 19:00:15.737823488,0.0,-0.296861328125,10.13158984375,0.0,0.0,-0.0010652644360316954,358.33843432302325,0.3356529393851972,104.68787501215049
2026-09-29 19:00:15.737823488,-0.07182128906249999,-0.31840771484374997,10.212987304687498,-0.0010652644360316954,-0.0010652644360316954,0.0,358.33816304622763,0.3354488396253478,104.6877075374148
2026-09-29 19:00:15.737823488,-0.026334472656249996,-0.26573876953125,10.21538134765625,-0.0010652644360316954,-0.0021305288720633907,0.0,358.3374589588952,0.33535575554211705,104.687855127711
2026-09-29 19:00:15.737823488,-0.06463916015625,-0.32319580078125,10.157924316406248,-0.0010652644360316954,-0.0010652644360316954,0.0,358.3376561183789,0.335201719471708,104.68769048290748
2026-09-29 19:00:15.737823488,-0.05745703125,-0.29925537109375,10.189046874999999,0.0,-0.0010652644360316954,0.0,358.33735325928774,0.3352881875350532,104.68752282591258
2026-09-29 19:00:15.737823488,-0.011970214843749999,-0.2824970703125,10.244109863281249,0.0,-0.0021305288720633907,0.0,358.33719077697043,0.3345077365848588,104.6876789530594
2026-09-29 19:00:15.737823488,-0.06463916015625,-0.2824970703125,10.172288574218749,-0.0010652644360316954,-0.0010652644360316954,0.0,358.336966577651,0.3338118381614666,104.68753134099414
2026-09-29 19:00:15.737823488,-0.011970214843749999,-0.29925537109375,10.1938349609375,0.0,-0.0021305288720633907,0.0,358.3370369523355,0.3329771904011536,104.68708579886417
2026-09-29 19:00:15.737823488,-0.055062988281249996,-0.30164941406249995,10.167500488281249,0.0,-0.0010652644360316954,0.0,358.33691255946536,0.33249785364811446,104.68692800402138
2026-09-29 19:00:15.737823488,-0.09576171874999999,-0.28728515624999995,10.172288574218749,0.0,-0.0010652644360316954,0.0,358.33674237264114,0.33244035428865415,104.687066290751
2026-09-29 19:00:15.737823488,-0.07182128906249999,-0.28489111328125,10.162712402343749,-0.0021305288720633907,0.0,0.0,358.3359390779747,0.3328720397685996,104.68720439296114
2026-09-29 19:00:15.737823488,-0.05745703125,-0.30164941406249995,10.16989453125,0.0,-0.0010652644360316954,0.0,358.3359463763661,0.3327692055048082,104.68764874769954
2026-09-29 19:00:15.737823488,-0.076609375,-0.31361962890624995,10.1363779296875,-0.0010652644360316954,-0.0010652644360316954,0.0,358.3352783218398,0.33280291714344423,104.68778759723205
2026-09-29 19:00:15.737823488,-0.076609375,-0.30404345703124996,10.14356005859375,0.0,0.0,-0.0010652644360316954,358.3350506599936,0.33335031143156274,104.68730659674311
2026-09-29 19:00:15.737823488,-0.076609375,-0.31361962890624995,10.1746826171875,0.0,0.0,-0.0010652644360316954,358.33542879080835,0.3335172797687046,104.6865294228575
2026-09-29 19:00:15.737823488,-0.08379150390625,-0.29925537109375,10.138771972656249,0.0,0.0,0.0,358.33562239868667,0.3341539428509194,104.68604736646842
2026-09-29 19:00:15.737823488,-0.059851074218749994,-0.24898046875,10.162712402343749,0.0,-0.0010652644360316954,0.0,358.3355593072152,0.33452596030619214,104.68649131150472
2026-09-29 19:00:15.737823488,-0.0383046875,-0.29925537109375,10.19144091796875,0.0,0.0,0.0,358.3356119080578,0.3346125167434067,104.68632578591304
2026-09-29 19:00:15.737823488,-0.059851074218749994,-0.32319580078125,10.18665283203125,0.0,-0.0010652644360316954,0.0,358.3356146999385,0.3348757738260908,104.68676129450854
2026-09-29 19:00:15.737823488,-0.05266894531249999,-0.3112255859375,10.157924316406248,0.0,-0.0021305288720633907,0.0,358.33506851938125,0.33465909304796454,104.68722187304418
2026-09-29 19:00:15.737823488,-0.05027490234375,-0.29207324218749997,10.167500488281249,0.0,0.0,0.0,358.335306340876,0.3350468424412779,104.68735186753487
2026-09-29 19:00:15.737823488,-0.047880859374999994,-0.29925537109375,10.205805175781249,0.0,-0.0010652644360316954,0.0,358.3356705147632,0.33506087156868364,104.68749146035222
2026-09-29 19:00:15.737823488,-0.05266894531249999,-0.3064375,10.217775390624999,0.0,0.0,0.0,358.33627143873855,0.33523455414597014,104.68762173987157
2026-09-29 19:00:15.737823488,-0.0813974609375,-0.31840771484374997,10.24889794921875,0.005326322180158476,0.0021305288720633907,0.0010652644360316954,358.3383171652703,0.33628277575864,104.68773389279029
2026-09-29 19:00:15.737823488,-0.035910644531249994,-0.14603662109374999,9.882609375,0.012783173232380343,0.0,0.0010652644360316954,358.3401318548674,0.33596254074673304,104.68819037606865
2026-09-29 19:00:15.737823488,-0.01915234375,-0.3782587890625,10.29199072265625,0.0,0.0,0.0,358.3373790173335,0.3355599469474179,104.68834023685187
2026-09-29 19:00:15.737823488,-0.07900341796874999,-0.32558984375,10.196229003906248,-0.004261057744126781,-0.0010652644360316954,-0.0010652644360316954,358.3367424577443,0.3356080385382297,104.68786746910044
2026-09-29 19:00:15.737823488,-0.05745703125,-0.3112255859375,10.083708984374999,0.0,0.0,0.0,358.33641455292434,0.33595179467473796,104.68800471017312
2026-09-29 19:00:15.737823488,-0.07182128906249999,-0.31361962890624995,10.2417158203125,0.0,0.0,0.0,358.33581323228765,0.3363701866093664,104.68782822899377
2026-09-29 19:00:15.737823488,-0.04069873046875,-0.31601367187499996,10.13158984375,-0.0010652644360316954,0.0,0.0,358.3359080054783,0.3368194343115971,104.68795735513824
2026-09-29 19:00:15.755711488,-0.05027490234375,-0.26573876953125,10.09328515625,0.0,0.0,0.0,358.33622738775273,0.3366295845043711,104.68749375655096
2026-09-29 19:00:15.774962688,-0.043092773437499995,-0.30404345703124996,10.21059326171875,-0.0010652644360316954,0.0,0.0,358.33612909950654,0.33669834960778516,104.68763238800172
2026-09-29 19:00:15.778053632,-0.05027490234375,-0.28010302734375,10.184258789062499,0.0,0.0,-0.0010652644360316954,358.3366097444591,0.33691258667547397,104.6874570625149
2026-09-29 19:00:15.792574976,-0.04069873046875,-0.29446728515625,10.16989453125,0.0,-0.0010652644360316954,0.0,358.3363747257291,0.33628171850171185,104.68700435696057
2026-09-29 19:00:15.792574976,-0.05266894531249999,-0.2824970703125,10.1651064453125,0.0,-0.0021305288720633907,-0.0010652644360316954,358.33634053111797,0.33534954138486944,104.68655993518554
2026-09-29 19:00:15.807828736,-0.0622451171875,-0.31840771484374997,10.160318359375,0.0,0.0,0.0,358.33624356386923,0.3350958290155141,104.68701254490347
2026-09-29 19:00:15.807828736,-0.043092773437499995,-0.2824970703125,10.217775390624999,0.0,0.0,0.0010652644360316954,358.33624414763784,0.3353145547613116,104.68776006717128
2026-09-29 19:00:15.822350848,-0.035910644531249994,-0.32319580078125,10.2417158203125,0.0,0.0,0.0,358.336222439216,0.33528845411404345,104.68789914497476
2026-09-29 19:00:15.840808192,-0.0622451171875,-0.28010302734375,10.160318359375,0.0,0.0,-0.0010652644360316954,358.33600822882573,0.3359787966139587,104.68740935888259
2026-09-29 19:00:15.859929344,-0.05745703125,-0.30883154296875,10.138771972656249,0.0,-0.0010652644360316954,-0.0010652644360316954,358.3357993653127,0.335891223113909,104.68694626536401
2026-09-29 19:00:15.862547456,-0.055062988281249996,-0.28489111328125,10.2034111328125,0.0,0.0,0.0,358.3355431365107,0.3356957374207176,104.68678781173543
2026-09-29 19:00:15.876582144,-0.026334472656249996,-0.31361962890624995,10.179470703124998,0.0,0.0,0.0,358.335699160773,0.33563986871358864,104.68692634363465
2026-09-29 19:00:15.885588736,-0.0622451171875,-0.27770898437499997,10.17707666015625,0.0,0.0,0.0,358.3357816628163,0.33549931905507113,104.68736941218323
2026-09-29 19:00:15.891608576,-0.0622451171875,-0.32558984375,10.16989453125,0.0,-0.0010652644360316954,-0.0010652644360316954,358.33579883271585,0.33524063147231425,104.68690768278864
2026-09-29 19:00:15.901982208,-0.06463916015625,-0.30164941406249995,10.227351562499999,0.0,0.0,-0.0010652644360316954,358.335609776136,0.33592247968229827,104.68641811791035
2026-09-29 19:00:15.924810752,-0.059851074218749994,-0.26573876953125,10.17707666015625,0.0,-0.0010652644360316954,0.0,358.33535725875964,0.3363287568050932,104.68654701596857
2026-09-29 19:00:15.924810752,-0.06942724609374999,-0.27531494140624996,10.227351562499999,0.0,0.0,0.0,358.33546727361824,0.33670098178600255,104.68637300660754
2026-09-29 19:00:15.938283776,-0.11730810546874999,-0.3208017578125,10.14356005859375,0.0,-0.0010652644360316954,0.0,358.33559446332316,0.3367504586942043,104.68620793571493
2026-09-29 19:00:15.939241472,-0.0909736328125,-0.30883154296875,10.1938349609375,-0.0010652644360316954,0.0,-0.0010652644360316954,358.33462926152845,0.33706420017465516,104.68634514255291
2026-09-29 19:00:15.984396288,-0.035910644531249994,-0.2824970703125,10.196229003906248,0.0,0.0,-0.0010652644360316954,358.3349252827547,0.33735010264373816,104.68556750465159
2026-09-29 19:00:15.984396288,-0.04069873046875,-0.33037792968749996,10.1938349609375,0.0,-0.0010652644360316954,-0.0010652644360316954,358.3349351695034,0.3370646875497276,104.6847918047104
2026-09-29 19:00:15.984396288,-0.04069873046875,-0.29446728515625,10.18665283203125,0.0,0.0,-0.0010652644360316954,358.3349738772921,0.33708951892391564,104.68462278242708
2026-09-29 19:00:15.984396288,-0.05266894531249999,-0.2824970703125,10.1938349609375,-0.0010652644360316954,-0.0010652644360316954,-0.0010652644360316954,358.3340228954179,0.33667343683810536,104.68385391353539
2026-09-29 19:00:15.984396288,-0.0622451171875,-0.30404345703124996,10.2034111328125,0.0,-0.0021305288720633907,0.0,358.33392527781706,0.3361071663238097,104.68340030501604
2026-09-29 19:00:16.000021248,-0.0383046875,-0.30404345703124996,10.1651064453125,-0.0010652644360316954,0.0,0.0,358.333758600312,0.33608232942583544,104.68323351901783
2026-09-29 19:00:16.031433728,-0.035910644531249994,-0.30164941406249995,10.179470703124998,0.0,0.0,0.0,358.3336846177807,0.3365746828750778,104.68304946810876
2026-09-29 19:00:16.062689536,-0.05266894531249999,-0.35671240234374996,10.160318359375,-0.0010652644360316954,0.0,0.0,358.33316700078024,0.3364511601589351,104.68318740952868
2026-09-29 19:00:16.062689536,-0.0383046875,-0.296861328125,10.217775390624999,-0.0010652644360316954,-0.0010652644360316954,0.0,358.33236159378936,0.33611494146593185,104.68333263424125
2026-09-29 19:00:16.081369856,-0.0335166015625,-0.28967919921874996,10.198623046875,0.0,0.0,0.0,358.3328737683393,0.33614961905110224,104.68347126096381
2026-09-29 19:00:16.094376192,-0.07900341796874999,-0.29925537109375,10.1651064453125,0.0,-0.0010652644360316954,-0.0010652644360316954,358.3331521110738,0.3364984737814375,104.6829913949488
2026-09-29 19:00:16.099236608,-0.055062988281249996,-0.30883154296875,10.1651064453125,-0.0010652644360316954,-0.0010652644360316954,0.0,358.3325946967347,0.3369575851545528,104.68312028283587
2026-09-29 19:00:16.099236608,-0.10294384765624999,-0.30404345703124996,10.11004345703125,0.0,0.0,0.0,358.3323069247017,0.337329674577155,104.68294386350951
2026-09-29 19:00:16.099236608,-0.05745703125,-0.3112255859375,10.1746826171875,0.0,0.0,0.0,358.333088833082,0.33735915875328504,104.68339637056086
2026-09-29 19:00:16.099236608,-0.067033203125,-0.31361962890624995,10.150742187499999,0.0,0.0,0.0,358.3337739150423,0.3375126974571194,104.68353432742134
2026-09-29 19:00:16.110262016,-0.0622451171875,-0.26334472656249996,10.184258789062499,0.0,0.0,0.0,358.33343495382803,0.3381039809376578,104.68366272005997
2026-09-29 19:00:16.112433920,-0.047880859374999994,-0.29925537109375,10.20819921875,0.0,0.0,0.0,358.3333758365116,0.3384556672697919,104.68379281929226
2026-09-29 19:00:16.112433920,-0.01915234375,-0.28728515624999995,10.20819921875,0.0,-0.0010652644360316954,0.0,358.33357744556224,0.3384600587805594,104.68393147400818
2026-09-29 19:00:16.141608960,-0.05266894531249999,-0.29446728515625,10.17707666015625,0.0,-0.0010652644360316954,0.0010652644360316954,358.3341653275847,0.3377668762198298,104.68469847299079
2026-09-29 19:00:16.141608960,-0.06942724609374999,-0.30164941406249995,10.162712402343749,0.0,0.0,0.0,358.3347097557294,0.3372609982442283,104.68546520293205
2026-09-29 19:00:16.141608960,-0.05027490234375,-0.3112255859375,10.189046874999999,0.0,0.0,0.0,358.3354446078972,0.33732609811639097,104.68529833695482
2026-09-29 19:00:16.157241600,-0.026334472656249996,-0.30883154296875,10.22016943359375,0.0,0.0,0.0,358.3354552326644,0.3372933999906212,104.68543767813439
2026-09-29 19:00:16.175567616,-0.09815576171875,-0.3112255859375,10.145954101562499,0.0,0.0,0.0,358.335415512392,0.3371875474154447,104.68588011607035
2026-09-29 19:00:16.175567616,-0.07182128906249999,-0.31601367187499996,10.145954101562499,0.0,0.0,0.0,358.33573106124123,0.33744850831585843,104.68601763018847
2026-09-29 19:00:16.188573696,-0.05027490234375,-0.30164941406249995,10.1938349609375,0.0,0.0,0.0,358.33583964467823,0.337433828848501,104.68585952192765
2026-09-29 19:00:16.219831552,-0.00718212890625,-0.29207324218749997,10.17707666015625,0.0010652644360316954,0.0,0.0,358.33644509491546,0.33824504890977997,104.68628434003139
2026-09-29 19:00:16.219831552,-0.0622451171875,-0.28728515624999995,10.19144091796875,0.0,0.0,0.0,358.3374575270864,0.33771214612295986,104.68612615989518
2026-09-29 19:00:16.235594240,-0.023940429687499997,-0.31361962890624995,10.155530273437499,0.0,0.0,0.0,358.33751722102227,0.3376256141375419,104.68626404552971
2026-09-29 19:00:16.235594240,0.00718212890625,-0.24658642578124998,10.18186474609375,0.0,0.0,0.0,358.33801643480865,0.33692062490198965,104.68610644655725
2026-09-29 19:00:16.235594240,-0.059851074218749994,-0.34234814453124995,10.129195800781249,0.0,0.0,0.0,358.3394026646278,0.3363320892004066,104.68625564205047
2026-09-29 19:00:16.251553280,-0.043092773437499995,-0.29207324218749997,10.17707666015625,0.0,0.0,0.0,358.3395661973058,0.33642244671433563,104.68640125121753
2026-09-29 19:00:16.251553280,-0.07421533203125,-0.3064375,10.145954101562499,0.0,0.0,0.0,358.33994659507204,0.33585862179962284,104.68686194440227
2026-09-29 19:00:16.283235584,-0.04069873046875,-0.29925537109375,10.1746826171875,0.0,-0.0010652644360316954,0.0,358.3397536487514,0.33600879531021965,104.68730523923196
2026-09-29 19:00:16.304931840,-0.07421533203125,-0.26573876953125,10.14834814453125,0.0,0.0,0.0,358.3396631932472,0.3359257258757584,104.68744396920529
2026-09-29 19:00:16.306109952,-0.043092773437499995,-0.3112255859375,10.138771972656249,0.0,0.0,0.0,358.3404455465938,0.3361193536479026,104.68788936627418
2026-09-29 19:00:16.321740032,-0.023940429687499997,-0.24898046875,10.2034111328125,-0.0010652644360316954,-0.0010652644360316954,0.0,358.3402190527395,0.3361977083975046,104.68802735250146
2026-09-29 19:00:16.328736512,-0.035910644531249994,-0.27052685546875,10.1746826171875,0.0,-0.0010652644360316954,0.0,358.34001231602286,0.3360602489377349,104.68816725543698
2026-09-29 19:00:16.328736512,-0.07900341796874999,-0.31361962890624995,10.179470703124998,0.0,-0.0010652644360316954,0.0,358.3403942252629,0.3356769072345976,104.68801076480375
2026-09-29 19:00:16.328736512,-0.011970214843749999,-0.32558984375,10.11004345703125,0.0,0.0,0.0,358.34103250937596,0.33605719431618075,104.68814852645738
2026-09-29 19:00:16.361534976,-0.09576171874999999,-0.28010302734375,10.18186474609375,0.0,-0.0010652644360316954,0.0,358.34120649078955,0.33571126137354634,104.68829582565192
2026-09-29 19:00:16.373923584,-0.01915234375,-0.28489111328125,10.14834814453125,-0.0010652644360316954,-0.0010652644360316954,0.0,358.3408663040075,0.33560551602990135,104.68905381158656
2026-09-29 19:00:16.388363776,-0.05027490234375,-0.29207324218749997,10.179470703124998,-0.0010652644360316954,-0.0010652644360316954,0.0,358.3408485982773,0.33519949452561865,104.68889674075756
2026-09-29 19:00:16.389397760,-0.08857958984374999,-0.28967919921874996,10.11483154296875,0.0,0.0,0.0,358.3404654473289,0.3357183368377671,104.68871286301689
2026-09-29 19:00:16.389397760,-0.06942724609374999,-0.27531494140624996,10.21059326171875,0.0,0.0,-0.0010652644360316954,358.34016192291955,0.33616242868228785,104.68824025433557
2026-09-29 19:00:16.405717248,-0.0622451171875,-0.29207324218749997,10.20819921875,0.0,0.0,0.0,358.34023381372447,0.3364883072412477,104.688379935079
2026-09-29 19:00:16.405717248,-0.01915234375,-0.3112255859375,10.117225585937499,0.0,-0.0010652644360316954,0.0,358.34008103181014,0.33671695785363287,104.68881463595899
2026-09-29 19:00:16.439073280,-0.023940429687499997,-0.30164941406249995,10.1938349609375,0.0,-0.0010652644360316954,0.0,358.3395030813433,0.3363388002414627,104.68926625726866
2026-09-29 19:00:16.470140928,-0.08379150390625,-0.3112255859375,10.179470703124998,0.0,0.0,0.0,358.33932306774415,0.3366923848179543,104.68938678874876
2026-09-29 19:00:16.472146432,-0.08857958984374999,-0.296861328125,10.162712402343749,0.0,-0.0021305288720633907,0.0,358.3390978708801,0.3365452629633654,104.68922844676385
2026-09-29 19:00:16.472146432,-0.05266894531249999,-0.258556640625,10.18186474609375,0.0,0.0,0.0,358.3396154001845,0.3370085236602057,104.68905323096412
2026-09-29 19:00:16.474147328,-0.0813974609375,-0.3064375,10.198623046875,0.0,-0.0010652644360316954,-0.0010652644360316954,358.3401137493944,0.33710078742626715,104.68888870733666
2026-09-29 19:00:16.475580928,-0.0622451171875,-0.29207324218749997,10.14834814453125,0.0,0.0,-0.0010652644360316954,358.33990071281704,0.3376596361234749,104.68840787895407
2026-09-29 19:00:16.477101568,-0.021546386718749998,-0.28489111328125,10.124407714843748,0.0,0.0,0.0,358.34034363753324,0.3376058347448815,104.68824108037563
2026-09-29 19:00:16.477101568,-0.04548681640625,-0.30404345703124996,10.157924316406248,0.0,0.0,0.0,358.34046862928557,0.3376714217615671,104.68806535403331
2026-09-29 19:00:16.509101568,-0.023940429687499997,-0.2824970703125,10.2034111328125,0.0,0.0,0.0,358.3401035839717,0.33789547225922745,104.68789050352875
2026-09-29 19:00:16.526417408,-0.06463916015625,-0.30404345703124996,10.222563476562499,0.0,0.0,0.0,358.34071884708806,0.33788738936368307,104.68802970141131
2026-09-29 19:00:16.542056704,-0.05027490234375,-0.31361962890624995,10.184258789062499,0.0,0.0,0.0,358.3406151740291,0.3379456573904807,104.68816834013181
2026-09-29 19:00:16.545671424,-0.067033203125,-0.29446728515625,10.2034111328125,0.0,0.0,0.0010652644360316954,358.340633768611,0.3378498158408228,104.68891599052687
2026-09-29 19:00:16.546356480,-0.06463916015625,-0.28489111328125,10.1746826171875,0.0,0.0,0.0,358.3410872104231,0.33791741038482964,104.68935939957846
2026-09-29 19:00:16.546356480,-0.06942724609374999,-0.32558984375,10.21059326171875,0.0,0.0,0.0,358.3413196138418,0.3382157511471829,104.68948935930368
2026-09-29 19:00:16.607147008,-0.043092773437499995,-0.29446728515625,10.15313623046875,0.0,0.0,0.0,358.3409368241841,0.3386680388297978,104.68961764130209
2026-09-29 19:00:16.607738368,-0.05745703125,-0.28728515624999995,10.1651064453125,0.0,0.0,-0.0010652644360316954,358.34032480011723,0.3385115640128918,104.6891450252451
2026-09-29 19:00:16.623361024,-0.009576171875,-0.27052685546875,10.198623046875,0.0,0.0,0.0,358.3405596430124,0.3388575763582209,104.68958009528463
2026-09-29 19:00:16.623802624,-0.043092773437499995,-0.2824970703125,10.222563476562499,0.0,0.0,0.0,358.3412054111967,0.3389520029762641,104.69001595517886
2026-09-29 19:00:16.623802624,-0.05027490234375,-0.30164941406249995,10.217775390624999,0.0,0.0,0.0,358.34132537314656,0.3390083692346918,104.69015423969245
2026-09-29 19:00:16.623802624,-0.01675830078125,-0.3112255859375,10.162712402343749,0.0,0.0,0.0,358.3417411211123,0.33937377053717194,104.69089369497283
2026-09-29 19:00:16.623802624,-0.08379150390625,-0.335166015625,10.11004345703125,0.0,-0.0010652644360316954,0.0,358.34108006715036,0.33864731683347343,104.6910485615632
2026-09-29 19:00:16.623802624,-0.08618554687499999,-0.27052685546875,10.145954101562499,0.0,-0.0010652644360316954,0.0,358.3411136251861,0.33875834275293376,104.69118629135275
2026-09-29 19:00:16.623802624,-0.05745703125,-0.27531494140624996,10.172288574218749,0.0,0.0,0.0,358.3412074570562,0.33963896344601824,104.69130669813279
2026-09-29 19:00:16.639079424,-0.05745703125,-0.28728515624999995,10.157924316406248,0.0,0.0,-0.0010652644360316954,358.3408309063852,0.3392171834085993,104.69053938727602
2026-09-29 19:00:16.672212224,-0.08857958984374999,-0.28489111328125,10.2321396484375,0.0,-0.0010652644360316954,0.0,358.3408272606983,0.3387349272895662,104.69038242080907
2026-09-29 19:00:16.696472832,-0.05027490234375,-0.27531494140624996,10.212987304687498,0.0,0.0,0.0,358.3413683704584,0.33975657089616434,104.69050360258166
2026-09-29 19:00:16.715841792,-0.055062988281249996,-0.3112255859375,10.160318359375,0.0,0.0,0.0,358.34192492809393,0.33972304794587477,104.69033751408266
2026-09-29 19:00:16.715841792,-0.067033203125,-0.31840771484374997,10.179470703124998,-0.0010652644360316954,0.0,0.0,358.34174407232894,0.3403135870064662,104.69015305679808
2026-09-29 19:00:16.715841792,-0.05027490234375,-0.29207324218749997,10.196229003906248,0.0,0.0,0.0,358.3414921093396,0.34044260122104253,104.69059589061447
2026-09-29 19:00:16.715841792,-0.08379150390625,-0.29446728515625,10.138771972656249,0.0,-0.0010652644360316954,0.0,358.3411270821864,0.3400841451525496,104.69074367832489
2026-09-29 19:00:16.723460096,-0.055062988281249996,-0.33995410156249994,10.162712402343749,0.0,0.0,0.0,358.3409803110677,0.340286845734991,104.69088213153536
2026-09-29 19:00:16.723460096,-0.047880859374999994,-0.31601367187499996,10.201017089843749,-0.0010652644360316954,0.0,0.0,358.340464492741,0.34047318307353186,104.69101833085224
2026-09-29 19:00:16.748558336,-0.043092773437499995,-0.3112255859375,10.18665283203125,0.0,-0.0021305288720633907,0.0,358.3402332462907,0.3399446417450966,104.69117400988972
2026-09-29 19:00:16.767857664,-0.011970214843749999,-0.27052685546875,10.212987304687498,0.0,-0.0010652644360316954,0.0,358.33989508046926,0.339574405137206,104.69132009529164
2026-09-29 19:00:16.809040384,-0.07182128906249999,-0.28010302734375,10.162712402343749,0.0,0.0,0.0,358.34059564583646,0.3401277196989209,104.69174741810687
2026-09-29 19:00:16.809040384,-0.04548681640625,-0.30883154296875,10.201017089843749,0.0,-0.0010652644360316954,0.0,358.3405480238701,0.33982980381424477,104.69159024080359
2026-09-29 19:00:16.821033472,-0.043092773437499995,-0.27052685546875,10.201017089843749,-0.0010652644360316954,-0.0021305288720633907,-0.0010652644360316954,358.34012906211336,0.33919827928929663,104.69144154027774
2026-09-29 19:00:16.821033472,-0.035910644531249994,-0.30404345703124996,10.19144091796875,0.0,0.0,0.0,358.34039482349993,0.3388083581511327,104.691284405563
2026-09-29 19:00:16.821033472,-0.04069873046875,-0.31601367187499996,10.14356005859375,0.0,-0.0021305288720633907,0.0,358.3399553783235,0.33838189532429747,104.69173497317236
2026-09-29 19:00:16.821033472,-0.0335166015625,-0.30404345703124996,10.179470703124998,0.0,-0.0021305288720633907,0.0,358.3396431046162,0.33746077255239626,104.69189897224668
2026-09-29 19:00:16.821033472,-0.0622451171875,-0.26573876953125,10.162712402343749,0.0,0.0,0.0,358.3395326816221,0.3374028810566319,104.69203763486023
2026-09-29 19:00:16.837114624,-0.055062988281249996,-0.28967919921874996,10.205805175781249,0.0,0.0,0.0,358.3395281225122,0.3377289682148871,104.69216803876778
2026-09-29 19:00:16.838832384,-0.04069873046875,-0.30883154296875,10.18186474609375,0.0,0.0,0.0,358.3393247347174,0.33791926039817627,104.69230613318562
2026-09-29 19:00:16.844912384,-0.06942724609374999,-0.29925537109375,10.16989453125,0.0,-0.0021305288720633907,-0.0010652644360316954,358.33922551230023,0.3373342421414913,104.69215751836659
2026-09-29 19:00:16.855667712,-0.04548681640625,-0.30164941406249995,10.1651064453125,0.0,0.0,0.0,358.33903820919033,0.33756607179854003,104.69138052436294
2026-09-29 19:00:16.889002240,-0.043092773437499995,-0.28967919921874996,10.17707666015625,0.0010652644360316954,0.0010652644360316954,0.0,358.3398182950235,0.33788299267792743,104.69120506436977
2026-09-29 19:00:16.920780544,-0.043092773437499995,-0.31840771484374997,10.129195800781249,0.0,-0.0021305288720633907,0.0,358.3401231049576,0.3371641539842293,104.6910569485849
2026-09-29 19:00:16.920780544,-0.0622451171875,-0.32558984375,10.2034111328125,0.0,0.0,0.0,358.3401475452359,0.33710879156291085,104.69119458800499
2026-09-29 19:00:16.948429824,-0.0622451171875,-0.33277197265624997,10.239321777343749,-0.0010652644360316954,-0.0021305288720633907,0.0,358.33915039308937,0.33649784704536284,104.69104415126223
2026-09-29 19:00:16.949430784,-0.07421533203125,-0.32798388671874995,10.20819921875,0.0,0.0,0.0,358.33899943408437,0.3369348296676104,104.6905617627105
2026-09-29 19:00:16.950430464,-0.03112255859375,-0.28010302734375,10.1363779296875,0.0,0.0,0.0,358.3384992987824,0.3373664033338733,104.69068928954363
2026-09-29 19:00:16.951431168,-0.028728515625,-0.26334472656249996,10.14834814453125,0.0,0.0,0.0,358.3383946903654,0.33721781775297804,104.69082802958671
2026-09-29 19:00:16.951431168,-0.0622451171875,-0.2824970703125,10.172288574218749,0.0,0.0,0.0,358.3387611842411,0.3370586694156269,104.69066249835647
2026-09-29 19:00:16.952838656,-0.055062988281249996,-0.3112255859375,10.167500488281249,-0.0010652644360316954,-0.0010652644360316954,0.0,358.3384205344074,0.3369250812179203,104.69142048208694
2026-09-29 19:00:16.952838656,-0.028728515625,-0.28728515624999995,10.2321396484375,0.0,0.0,0.0,358.33917304398994,0.33618838649437377,104.69188157440156
2026-09-29 19:00:16.971087872,-0.04069873046875,-0.2824970703125,10.162712402343749,0.0,-0.0021305288720633907,0.0,358.33923843849317,0.3350954682152072,104.69204774468464
2026-09-29 19:00:17.014666752,-0.0622451171875,-0.31601367187499996,10.157924316406248,-0.0010652644360316954,-0.0010652644360316954,0.0,358.3390092487436,0.3350814455088298,104.6921874932775
2026-09-29 19:00:17.014870784,-0.026334472656249996,-0.2824970703125,10.11483154296875,0.0,0.0,0.0,358.339058247773,0.3349708204885183,104.69263922000185
2026-09-29 19:00:17.014870784,-0.04069873046875,-0.32798388671874995,10.18186474609375,0.0,0.0010652644360316954,0.0,358.33903104535545,0.335490316572348,104.69276069941846
2026-09-29 19:00:17.037865984,-0.06463916015625,-0.296861328125,10.19144091796875,0.0,0.0,0.0,358.3391924845734,0.33548768927485,104.69289924112698
2026-09-29 19:00:17.053496576,-0.06463916015625,-0.29925537109375,10.20819921875,-0.0010652644360316954,0.0,0.0,358.3385484396153,0.3356433356687677,104.69303661262786
2026-09-29 19:00:17.053496576,-0.0143642578125,-0.28489111328125,10.18665283203125,0.0,-0.0010652644360316954,0.0,358.33845912252815,0.3351936320571373,104.69288800940281
2026-09-29 19:00:17.072438016,-0.076609375,-0.30883154296875,10.18665283203125,0.0,-0.0010652644360316954,0.0,358.33853017241324,0.33436523057043127,104.69243361577712
2026-09-29 19:00:17.072438016,-0.055062988281249996,-0.32558984375,10.162712402343749,0.0,-0.0021305288720633907,0.0,358.3388018049562,0.3340677646727504,104.69289543545241
2026-09-29 19:00:17.088064512,-0.055062988281249996,-0.2681328125,10.20819921875,0.0,0.0,0.0,358.338830722421,0.33415262191839734,104.69364313870958
2026-09-29 19:00:17.088064512,-0.067033203125,-0.32319580078125,10.217775390624999,0.0,0.0,-0.0010652644360316954,358.3391053703968,0.33467192989473604,104.69346845324657
2026-09-29 19:00:17.088064512,-0.03112255859375,-0.3208017578125,10.129195800781249,0.0,0.0,-0.0021305288720633907,358.33883821180376,0.3349884013491831,104.69269102899179
2026-09-29 19:00:17.088064512,-0.067033203125,-0.28967919921874996,10.19144091796875,-0.0010652644360316954,0.0,0.0,358.3384537092844,0.3353718282604751,104.69281919988781
2026-09-29 19:00:17.097429504,-0.07421533203125,-0.296861328125,10.196229003906248,0.0,0.0,-0.0010652644360316954,358.338570569481,0.3355243006247311,104.69234727193918
2026-09-29 19:00:17.134204928,-0.04069873046875,-0.30164941406249995,10.155530273437499,-0.0010652644360316954,0.0,0.0,358.33828418057806,0.3357330782844681,104.6924866319978
2026-09-29 19:00:17.134617088,-0.06463916015625,-0.28967919921874996,10.184258789062499,-0.0010652644360316954,-0.0010652644360316954,0.0,358.33820956085924,0.3354633176716061,104.69293941208272
2026-09-29 19:00:17.166977024,-0.08379150390625,-0.3208017578125,10.184258789062499,-0.0010652644360316954,-0.0010652644360316954,0.0,358.33797767288627,0.33524396051598176,104.69339124501778
2026-09-29 19:00:17.238264576,-0.023940429687499997,-0.2681328125,10.196229003906248,0.0,-0.0010652644360316954,0.0,358.3372715089306,0.33560206653936037,104.69322311622624
2026-09-29 19:00:17.238264576,-0.08857958984374999,-0.29925537109375,10.198623046875,0.0,0.0,-0.0010652644360316954,358.3378962064032,0.33507874569335794,104.69276128097435
2026-09-29 19:00:17.238264576,-0.021546386718749998,-0.296861328125,10.150742187499999,0.0,-0.0010652644360316954,0.0010652644360316954,358.3376619638147,0.335055311044723,104.69351814897101
2026-09-29 19:00:17.238264576,-0.05027490234375,-0.3064375,10.18186474609375,-0.0010652644360316954,0.0,0.0,358.33736750766303,0.3351324919467054,104.69364686780645
2026-09-29 19:00:17.238264576,-0.04069873046875,-0.28728515624999995,10.1938349609375,0.0,0.0,0.0,358.3372644860798,0.3351221473721611,104.69348047642266
2026-09-29 19:00:17.238264576,-0.028728515625,-0.33995410156249994,10.1746826171875,0.0,-0.0021305288720633907,0.0,358.33781334311874,0.33431604008078375,104.69333211418335
2026-09-29 19:00:17.238264576,-0.04548681640625,-0.29446728515625,10.179470703124998,0.0,0.0,0.0,358.33763874012425,0.3341192261733772,104.6934685670221
2026-09-29 19:00:17.238264576,-0.028728515625,-0.31361962890624995,10.251291992187499,0.0,0.0,0.0,358.33801044721577,0.33408708492915723,104.69391153293807
2026-09-29 19:00:17.238264576,-0.05745703125,-0.31840771484374997,10.155530273437499,0.0,-0.0010652644360316954,0.0,358.338076534934,0.33333041478582226,104.69406710344389
2026-09-29 19:00:17.238264576,-0.05266894531249999,-0.29925537109375,10.198623046875,0.0,-0.0010652644360316954,0.0,358.3387486572346,0.3331080964022962,104.69421377352367
2026-09-29 19:00:17.254248960,-0.03112255859375,-0.29925537109375,10.198623046875,-0.0010652644360316954,0.0,0.0,358.3379097164501,0.3327116101089212,104.69436058953231
2026-09-29 19:00:17.254248960,-0.08379150390625,-0.31840771484374997,10.26565625,0.0,0.0010652644360316954,0.0,358.33790202770564,0.3336571369686936,104.69416816686562
2026-09-29 19:00:17.285865984,-0.043092773437499995,-0.29925537109375,10.20819921875,0.0,-0.0010652644360316954,0.0,358.33760881590416,0.3339741461992502,104.69430574474364
2026-09-29 19:00:17.285865984,-0.0813974609375,-0.30164941406249995,10.133983886718749,0.0,-0.0010652644360316954,0.0,358.3375475637725,0.3338591692926431,104.69414849872881
2026-09-29 19:00:17.317116416,-0.08618554687499999,-0.27770898437499997,10.239321777343749,0.0,-0.0010652644360316954,0.0,358.3372997239724,0.3338226266421958,104.69429524465414
2026-09-29 19:00:17.317116416,-0.043092773437499995,-0.30164941406249995,10.21538134765625,0.0,0.0,0.0,358.3371857732223,0.33460602686248586,104.69411998147324
2026-09-29 19:00:17.363990528,-0.07421533203125,-0.30404345703124996,10.1268017578125,0.0,-0.0010652644360316954,0.0,358.3370987633114,0.3344859953459487,104.6942587925718
2026-09-29 19:00:17.395239424,-0.04069873046875,-0.31361962890624995,10.201017089843749,0.0,0.0,0.0,358.3376647443393,0.3342885703986736,104.6944066137526
2026-09-29 19:00:17.395239424,-0.04548681640625,-0.32558984375,10.1938349609375,0.0,0.0,-0.0010652644360316954,358.3378365553194,0.33379450054405446,104.69394394056236
2026-09-29 19:00:17.395239424,-0.07182128906249999,-0.29207324218749997,10.141166015624998,0.0,0.0,0.0,358.3371887865114,0.33415819096031496,104.69376720997425
2026-09-29 19:00:17.395239424,-0.05027490234375,-0.27770898437499997,10.1938349609375,0.0,0.0,0.0,358.33761182330824,0.3345662425515466,104.69420339855428
2026-09-29 19:00:17.395239424,-0.05266894531249999,-0.3112255859375,10.24889794921875,0.0,0.0,0.0,358.33857902570156,0.33481851516993527,104.69433410377746
2026-09-29 19:00:17.395239424,-0.047880859374999994,-0.28967919921874996,10.2034111328125,0.0,-0.0010652644360316954,0.0,358.33881632305906,0.33433807282984923,104.69449067112956
2026-09-29 19:00:17.395239424,-0.09815576171875,-0.3064375,10.162712402343749,-0.0010652644360316954,-0.0010652644360316954,-0.0010652644360316954,358.33807639493943,0.33364365084502295,104.69403680124209
2026-09-29 19:00:17.395239424,0.00239404296875,-0.32319580078125,10.167500488281249,0.0,0.0,0.0,358.33761765083426,0.3337001601212716,104.69417517488708
2026-09-29 19:00:17.395239424,-0.07421533203125,-0.31840771484374997,10.19144091796875,0.0,-0.0021305288720633907,0.0,358.3374497506714,0.33277415276558553,104.69433122561483
2026-09-29 19:00:17.395239424,-0.059851074218749994,-0.29925537109375,10.160318359375,0.0,-0.0010652644360316954,0.0,358.3377399598169,0.33203712429671683,104.69419020428681
2026-09-29 19:00:17.395239424,-0.047880859374999994,-0.30883154296875,10.17707666015625,0.0,0.0,-0.0010652644360316954,358.33814374871594,0.33230381135867243,104.69370940955243
2026-09-29 19:00:17.489079808,-0.076609375,-0.27770898437499997,10.196229003906248,0.0,0.0,-0.0010652644360316954,358.33880615877473,0.3325195935198897,104.69292333346985
2026-09-29 19:00:17.535934720,-0.0335166015625,-0.30164941406249995,10.184258789062499,0.0,-0.0010652644360316954,0.0,358.33911600312325,0.3326504558948143,104.69336764132254
2026-09-29 19:00:17.535934720,-0.0622451171875,-0.29446728515625,10.145954101562499,0.0,0.0,0.0,358.33950040468466,0.3332810177289712,104.69318283773771
2026-09-29 19:00:17.535934720,-0.05027490234375,-0.29207324218749997,10.184258789062499,0.0,0.0,0.0,358.3393461665491,0.3341671410679435,104.69269340704773
2026-09-29 19:00:17.567185920,-0.021546386718749998,-0.28967919921874996,10.14356005859375,0.0,0.0,-0.0010652644360316954,358.33936556735586,0.333865507523846,104.69253491767266
2026-09-29 19:00:17.567185920,-0.04069873046875,-0.296861328125,10.162712402343749,0.0,0.0,-0.0010652644360316954,358.3394612727124,0.33374455953386567,104.6920629472839
2026-09-29 19:00:17.582809856,-0.07182128906249999,-0.2824970703125,10.141166015624998,-0.0010652644360316954,0.0,0.0,358.3389266479693,0.33395861767733537,104.69220090936527
2026-09-29 19:00:17.582809856,-0.04548681640625,-0.32798388671874995,10.189046874999999,0.0,0.0,0.0,358.3394188949912,0.33455123373455387,104.69263570508515
2026-09-29 19:00:17.582809856,-0.028728515625,-0.31361962890624995,10.157924316406248,0.0,0.0,0.0,358.3394671892141,0.33461117422006076,104.69307863108075
2026-09-29 19:00:17.582809856,-0.026334472656249996,-0.30404345703124996,10.167500488281249,0.0,0.0,0.0,358.33925801194175,0.334904908516326,104.69319898405789
2026-09-29 19:00:17.582809856,-0.0622451171875,-0.29446728515625,10.229745605468748,0.0,-0.0021305288720633907,0.0,358.3394254592474,0.3344978986489654,104.69304122811387
2026-09-29 19:00:17.582809856,-0.067033203125,-0.3064375,10.179470703124998,0.0,0.0,0.0,358.33963932986404,0.3347117152854861,104.69379004699692
2026-09-29 19:00:17.582809856,-0.055062988281249996,-0.296861328125,10.229745605468748,0.0,0.0,0.0,358.33948607848737,0.3342990841106278,104.69393725569738
2026-09-29 19:00:17.582809856,-0.04548681640625,-0.30883154296875,10.145954101562499,-0.0010652644360316954,-0.0021305288720633907,0.0,358.33869815152815,0.3335513301963223,104.69439815812383
2026-09-29 19:00:17.582809856,-0.06463916015625,-0.30883154296875,10.212987304687498,-0.0010652644360316954,-0.0010652644360316954,0.0,358.3380703580895,0.33333945579751945,104.69454447943917
2026-09-29 19:00:17.582809856,-0.059851074218749994,-0.30164941406249995,10.198623046875,0.0,0.0,0.0,358.33838869615585,0.3338334193698071,104.6943699719428
2026-09-29 19:00:17.582809856,-0.047880859374999994,-0.3064375,10.1651064453125,0.0,-0.0010652644360316954,0.0,358.33784178146954,0.33369355819754615,104.69421164223853
2026-09-29 19:00:17.582809856,-0.00718212890625,-0.2824970703125,10.18186474609375,0.0,0.0,0.0,358.3380313690133,0.33361828085581147,104.69435025719731
2026-09-29 19:00:17.582809856,-0.055062988281249996,-0.30164941406249995,10.189046874999999,-0.0010652644360316954,-0.0010652644360316954,0.0,358.3378857850459,0.3330774310808104,104.69449754691105
2026-09-29 19:00:17.629686272,-0.06463916015625,-0.28967919921874996,10.155530273437499,0.0,0.0,0.0,358.33774905186397,0.33310534675026,104.6946360378761
2026-09-29 19:00:17.676529408,-0.0813974609375,-0.2824970703125,10.11961962890625,0.0,0.0,0.0,358.33744075378087,0.33326389235399556,104.69508039161576
2026-09-29 19:00:17.677806592,-0.04069873046875,-0.30883154296875,10.18186474609375,-0.0010652644360316954,-0.0010652644360316954,0.0,358.3371250871061,0.3333388953232344,104.69491455437037
2026-09-29 19:00:17.677806592,-0.06463916015625,-0.28728515624999995,10.18186474609375,0.0,-0.0010652644360316954,-0.0010652644360316954,358.3366182454506,0.33234096440970845,104.69446912825596
2026-09-29 19:00:17.724165120,-0.055062988281249996,-0.29925537109375,10.133983886718749,0.0,0.0,0.0,358.3370208231884,0.3324640103536091,104.69460888822036
2026-09-29 19:00:17.724165120,-0.05027490234375,-0.28010302734375,10.160318359375,0.0,0.0,0.0,358.33679824459955,0.3323583860990823,104.69505197308922
2026-09-29 19:00:17.771039232,-0.021546386718749998,-0.3064375,10.155530273437499,0.0,0.0,0.0,358.3369717867575,0.3322795983490226,104.69549561748241
2026-09-29 19:00:17.771039232,-0.055062988281249996,-0.30164941406249995,10.184258789062499,0.0,0.0,0.0,358.33704499342736,0.3322295147622344,104.6959297795218
2026-09-29 19:00:17.771039232,-0.0335166015625,-0.296861328125,10.145954101562499,0.0,0.0,0.0,358.337571833904,0.3324488768690839,104.69575469913909
2026-09-29 19:00:17.771039232,-0.059851074218749994,-0.2824970703125,10.18665283203125,0.0,-0.0010652644360316954,0.0,358.3381246814572,0.3321094675663678,104.69590252644953
2026-09-29 19:00:17.771039232,-0.0335166015625,-0.3064375,10.236927734375,0.0,0.0,0.0,358.33840073315736,0.3324700515365827,104.6960327843955
2026-09-29 19:00:17.786664192,-0.04548681640625,-0.30404345703124996,10.222563476562499,0.0,0.0,0.0,358.33857339035933,0.332971267536452,104.69645879156248
2026-09-29 19:00:17.786664192,-0.0335166015625,-0.29446728515625,10.160318359375,0.0,-0.0010652644360316954,0.0,358.3386293506652,0.3329114400425992,104.6962933571026
2026-09-29 19:00:17.786664192,-0.021546386718749998,-0.30404345703124996,10.17707666015625,0.0,-0.0021305288720633907,0.0,358.33849650624177,0.33301606622797286,104.69673699086349
2026-09-29 19:00:17.786664192,-0.09336767578124999,-0.28489111328125,10.141166015624998,0.0,-0.0010652644360316954,0.0,358.339307265843,0.33242660505745025,104.69657933564599
2026-09-29 19:00:17.786664192,-0.067033203125,-0.29207324218749997,10.205805175781249,0.0,0.0,0.0,358.3397712465145,0.33228447219974505,104.6967265575352
2026-09-29 19:00:17.786664192,-0.059851074218749994,-0.31840771484374997,10.18186474609375,0.0,0.0,0.0,358.33958386381977,0.33275246081863913,104.69685597847705
2026-09-29 19:00:17.786664192,-0.043092773437499995,-0.29925537109375,10.11961962890625,-0.0010652644360316954,0.0,0.0,358.33868751783297,0.3331322671489311,104.69667983393886
2026-09-29 19:00:17.786664192,-0.01675830078125,-0.30883154296875,10.198623046875,0.0,-0.0021305288720633907,0.0,358.3386321622243,0.33289015550426027,104.69651365235748
2026-09-29 19:00:17.786664192,-0.05027490234375,-0.28489111328125,10.14834814453125,0.0,0.0,0.0,358.3383996397463,0.33257888557147164,104.69634666762559
2026-09-29 19:00:17.833973760,-0.047880859374999994,-0.28489111328125,10.205805175781249,0.0,0.0,0.0,358.33864327934873,0.3332341279372965,104.69646795160074
2026-09-29 19:00:17.833973760,-0.01915234375,-0.3064375,10.167500488281249,0.0,0.0,0.0,358.33862396968806,0.33348064978661235,104.69629330496768
2026-09-29 19:00:17.896477696,-0.067033203125,-0.29925537109375,10.19144091796875,0.0,0.0,0.0010652644360316954,358.3388476927351,0.33327811745009156,104.69673706915313
2026-09-29 19:00:17.896477696,-0.026334472656249996,-0.28967919921874996,10.18186474609375,0.0,-0.0010652644360316954,0.0,358.338608623636,0.3332735223235726,104.69718898426082
2026-09-29 19:00:17.959173632,-0.05266894531249999,-0.29446728515625,10.13158984375,0.0,-0.0010652644360316954,0.0,358.3387758183632,0.3325701710233981,104.69672621627242
2026-09-29 19:00:17.959173632,-0.059851074218749994,-0.33756005859375,10.196229003906248,0.0,0.0,-0.0010652644360316954,358.3386508442905,0.33285895412103095,104.69624579039085
2026-09-29 19:00:17.959173632,-0.04069873046875,-0.28489111328125,10.246503906249998,0.0,0.0,-0.0010652644360316954,358.3382639958372,0.33319952920006646,104.69576390422003
2026-09-29 19:00:18.021677568,-0.043092773437499995,-0.2537685546875,10.167500488281249,0.0,-0.0010652644360316954,0.0,358.33832460424094,0.332889202767395,104.69621748137995
2026-09-29 19:00:18.021677568,-0.035910644531249994,-0.3064375,10.162712402343749,0.0,0.0,0.0,358.3388102528624,0.33310956540304304,104.69604403481378
2026-09-29 19:00:18.021677568,-0.035910644531249994,-0.2729208984375,10.2034111328125,0.0,-0.0021305288720633907,0.0,358.3387449991765,0.3323779737708287,104.6955905619434
2026-09-29 19:00:18.021677568,-0.05027490234375,-0.3112255859375,10.150742187499999,0.0,-0.0010652644360316954,0.0,358.3389649883994,0.3312450341497589,104.69545079831104
2026-09-29 19:00:18.021677568,-0.11252001953124999,-0.31361962890624995,10.133983886718749,-0.0010652644360316954,0.0,0.0,358.3386876760232,0.331480677015006,104.69527459554416
2026-09-29 19:00:18.021677568,-0.0143642578125,-0.30164941406249995,10.129195800781249,0.0,-0.0010652644360316954,0.0,358.33799745700134,0.3317669359754899,104.69541176213184
2026-09-29 19:00:18.021677568,-0.047880859374999994,-0.27770898437499997,10.155530273437499,0.0,-0.0010652644360316954,0.0,358.33811312856824,0.33126992636704183,104.69555884076887
2026-09-29 19:00:18.021677568,-0.028728515625,-0.31840771484374997,10.189046874999999,0.0,-0.0010652644360316954,0.0,358.3385639283741,0.3305738983036114,104.69571486179551
2026-09-29 19:00:18.021677568,-0.055062988281249996,-0.33277197265624997,10.141166015624998,0.0,-0.0010652644360316954,0.0,358.33892741956697,0.33010741891726625,104.69555645743169
2026-09-29 19:00:18.021677568,-0.07421533203125,-0.29446728515625,10.145954101562499,0.0,0.0,0.0,358.3391786218569,0.33050314007303905,104.6956848233844
2026-09-29 19:00:18.021677568,-0.021546386718749998,-0.296861328125,10.179470703124998,-0.0010652644360316954,-0.0010652644360316954,0.0010652644360316954,358.3387785780094,0.3304405549887932,104.69613741021719
2026-09-29 19:00:18.021677568,-0.0335166015625,-0.28489111328125,10.1746826171875,-0.0010652644360316954,-0.0010652644360316954,0.0,358.33810730210047,0.32958263198421456,104.69659735838985
2026-09-29 19:00:18.021677568,-0.055062988281249996,-0.30404345703124996,10.15313623046875,0.0,-0.0021305288720633907,0.0,358.33805898078356,0.3292650867585592,104.69735532713692
2026-09-29 19:00:18.021677568,-0.0622451171875,-0.296861328125,10.201017089843749,-0.0010652644360316954,-0.0021305288720633907,0.0,358.33737996406455,0.3286210209667766,104.69691066228869
2026-09-29 19:00:18.021677568,-0.055062988281249996,-0.3112255859375,10.198623046875,0.0,-0.0010652644360316954,-0.0010652644360316954,358.33753893445817,0.3285124605299988,104.696142854502
2026-09-29 19:00:18.021677568,-0.07421533203125,-0.3112255859375,10.15313623046875,0.0010652644360316954,0.0,0.0,358.3374658358892,0.3287489943993083,104.6962729166872
2026-09-29 19:00:18.037620736,-0.035910644531249994,-0.28010302734375,10.16989453125,0.0,0.0,0.0,358.3370156843731,0.3290694207664423,104.69609755665512
2026-09-29 19:00:18.037620736,-0.043092773437499995,-0.29925537109375,10.14834814453125,0.0,-0.0010652644360316954,0.0,358.33761780077486,0.32865179729250016,104.69655074958162
2026-09-29 19:00:18.084499456,-0.0143642578125,-0.29925537109375,10.14356005859375,0.0,0.0,0.0,358.33745931460874,0.3287406363087582,104.69607913009031
2026-09-29 19:00:18.084499456,-0.04548681640625,-0.25616259765625,10.1938349609375,0.0,-0.0010652644360316954,0.0,358.33723578182907,0.3280591457459844,104.6965416996316
2026-09-29 19:00:18.131374336,-0.05027490234375,-0.28728515624999995,10.15313623046875,0.0,0.0010652644360316954,0.0,358.3372925909463,0.3289469484426021,104.6966547634313
2026-09-29 19:00:18.193875712,-0.0335166015625,-0.27531494140624996,10.1746826171875,0.0,0.0,0.0,358.33742895618417,0.32989460516911817,104.69707167679398
2026-09-29 19:00:18.193875712,-0.023940429687499997,-0.32319580078125,10.145954101562499,-0.0010652644360316954,-0.0010652644360316954,0.0,358.33738466180927,0.32943475526024424,104.69752642446119
2026-09-29 19:00:18.209500416,-0.055062988281249996,-0.3112255859375,10.227351562499999,0.0,0.0,0.0,358.3377972254383,0.32930355899355634,104.69735945185009
2026-09-29 19:00:18.256396800,-0.05745703125,-0.29925537109375,10.157924316406248,0.0,0.0,0.0,358.3379863877839,0.33004912144497833,104.69778544872455
2026-09-29 19:00:18.256396800,-0.067033203125,-0.29925537109375,10.179470703124998,-0.0010652644360316954,0.0,-0.0010652644360316954,358.3372603213663,0.330088038335784,104.69761911632624
2026-09-29 19:00:18.256396800,-0.026334472656249996,-0.28728515624999995,10.17707666015625,0.0,-0.0010652644360316954,0.0,358.33731595501007,0.33042230680614704,104.6971487251008
2026-09-29 19:00:18.256396800,-0.06942724609374999,-0.27770898437499997,10.196229003906248,0.0,-0.0010652644360316954,0.0,358.33723234554185,0.3299614882196267,104.6976014663436
2026-09-29 19:00:18.256396800,-0.0383046875,-0.31601367187499996,10.16989453125,0.0,0.0,0.0010652644360316954,358.33747519187244,0.33025096065771414,104.69834155361467
2026-09-29 19:00:18.256396800,-0.0909736328125,-0.33756005859375,10.172288574218749,0.0,-0.0010652644360316954,0.0010652644360316954,358.33737895752125,0.33019276463143,104.69939531788233
2026-09-29 19:00:18.272001280,-0.047880859374999994,-0.29446728515625,10.196229003906248,0.0,-0.0010652644360316954,0.0,358.33681545674955,0.33010724107045714,104.69954191910081
2026-09-29 19:00:18.272001280,-0.07900341796874999,-0.28728515624999995,10.19144091796875,0.0,0.0,-0.0010652644360316954,358.3373410507328,0.3304278303594743,104.69906177320938
2026-09-29 19:00:18.272001280,-0.01915234375,-0.33037792968749996,10.15313623046875,0.0,-0.0010652644360316954,0.0,358.33760420876405,0.3305159493665301,104.69920073082544
2026-09-29 19:00:18.272001280,-0.05745703125,-0.30883154296875,10.18186474609375,0.0,0.0,0.0,358.3374558294486,0.3297477042183468,104.69904106624904
2026-09-29 19:00:18.272001280,-0.05266894531249999,-0.28967919921874996,10.198623046875,0.0,0.0,0.0,358.33732285945655,0.33053972539913873,104.69916190216189
2026-09-29 19:00:18.334499840,-0.043092773437499995,-0.296861328125,10.167500488281249,0.0,-0.0010652644360316954,0.0,358.33677729859147,0.3308189872941333,104.69988170975054
2026-09-29 19:00:18.334499840,-0.0383046875,-0.3064375,10.179470703124998,0.0,0.0,0.0,358.33737733944815,0.331203940816941,104.70031716651908
2026-09-29 19:00:18.334499840,-0.04069873046875,-0.31601367187499996,10.2034111328125,0.0,0.0,0.0,358.33769414389207,0.33132384705915957,104.70076158283958
2026-09-29 19:00:18.334499840,-0.055062988281249996,-0.27531494140624996,10.13158984375,0.0,0.0,-0.0010652644360316954,358.3378472697825,0.3319958056137783,104.70057728773702
2026-09-29 19:00:18.397000192,-0.04548681640625,-0.28010302734375,10.133983886718749,0.0,-0.0010652644360316954,0.0,358.33737193314664,0.33184811229131606,104.70041938783314
2026-09-29 19:00:18.397000192,-0.067033203125,-0.29207324218749997,10.201017089843749,0.0,0.0,0.0,358.3377654911343,0.3316597777269655,104.70026295244512
2026-09-29 19:00:18.397000192,-0.047880859374999994,-0.30164941406249995,10.22016943359375,0.0,0.0,-0.0010652644360316954,358.3377031368242,0.3315576323727549,104.69949567280977
2026-09-29 19:00:18.397000192,-0.04069873046875,-0.3064375,10.198623046875,0.0,0.0,0.0,358.33783416354015,0.3318002383474336,104.6996250171856
2026-09-29 19:00:18.397000192,-0.05745703125,-0.28489111328125,10.14356005859375,0.0,0.0,0.0,358.338246149854,0.3317171260210911,104.69945805607881
2026-09-29 19:00:18.475125248,-0.05027490234375,-0.31840771484374997,10.155530273437499,0.0,0.0,0.0010652644360316954,358.33902451835525,0.33125590027432483,104.6999121366409
2026-09-29 19:00:18.490750720,-0.05027490234375,-0.31840771484374997,10.20819921875,0.0,0.0,0.0,358.3386698123611,0.3315439953955296,104.69973542296484
2026-09-29 19:00:18.553250048,-0.043092773437499995,-0.29446728515625,10.189046874999999,0.0,0.0,0.0,358.3386998993798,0.3314381962371826,104.69926309248736
2026-09-29 19:00:18.553250048,-0.0335166015625,-0.29207324218749997,10.157924316406248,0.0,-0.0010652644360316954,0.0,358.3386407591966,0.3308820456285496,104.69972486925798
2026-09-29 19:00:18.553250048,-0.067033203125,-0.30164941406249995,10.157924316406248,0.0,0.0,0.0,358.3390218078032,0.331101973868886,104.69985396955369
2026-09-29 19:00:18.553250048,-0.0335166015625,-0.296861328125,10.2034111328125,-0.0010652644360316954,0.0,0.0,358.33890036711904,0.3315897286407865,104.69967870434003
2026-09-29 19:00:18.553250048,-0.043092773437499995,-0.30404345703124996,10.196229003906248,0.0,0.0,0.0,358.3385100997148,0.33183271539868614,104.69980865342727
2026-09-29 19:00:18.553250048,-0.06463916015625,-0.28728515624999995,10.16989453125,0.0,-0.0021305288720633907,0.0,358.3382731333131,0.33109558378262477,104.69996432284398
2026-09-29 19:00:18.553250048,-0.04548681640625,-0.30404345703124996,10.198623046875,-0.0010652644360316954,-0.0010652644360316954,0.0,358.3379746321608,0.3309418001014445,104.70011245259914
2026-09-29 19:00:18.553250048,-0.04548681640625,-0.29207324218749997,10.133983886718749,0.0,-0.0010652644360316954,0.0,358.3373229864619,0.33062471872597315,104.70056356961621
2026-09-29 19:00:18.553250048,-0.0383046875,-0.3208017578125,10.229745605468748,0.0,0.0010652644360316954,0.0,358.3375140122446,0.3307966797545634,104.70130343665335
2026-09-29 19:00:18.553250048,-0.06463916015625,-0.3064375,10.167500488281249,0.0,-0.0010652644360316954,0.0,358.33710285191074,0.3305542603280033,104.70113522731833
2026-09-29 19:00:18.553250048,-0.047880859374999994,-0.29925537109375,10.18186474609375,0.0,-0.0010652644360316954,0.0,358.33690036000314,0.3306995829179426,104.70096821095265
2026-09-29 19:00:18.553250048,-0.0622451171875,-0.31601367187499996,10.160318359375,0.0,0.0,0.0010652644360316954,358.3370597646034,0.3305938171410172,104.70171676145668
2026-09-29 19:00:18.553250048,-0.01675830078125,-0.30883154296875,10.14356005859375,0.0,0.0,0.0010652644360316954,358.3372726240479,0.33083878251979804,104.70277052412952
2026-09-29 19:00:18.553250048,-0.05745703125,-0.3112255859375,10.13158984375,0.0,0.0,0.0,358.33729775945596,0.3308285081430193,104.70229811499203
2026-09-29 19:00:18.553250048,-0.06463916015625,-0.31601367187499996,10.1268017578125,0.0,-0.0010652644360316954,0.0,358.33665198167824,0.3309613233643859,104.7021303809935
2026-09-29 19:00:18.553250048,-0.05266894531249999,-0.27531494140624996,10.184258789062499,0.0,0.0,0.0,358.3368153969296,0.3304446812981956,104.70198147092236
2026-09-29 19:00:18.553250048,-0.026334472656249996,-0.3208017578125,10.150742187499999,-0.0010652644360316954,-0.0010652644360316954,0.0,358.33666456448435,0.3301667691261648,104.70182369790618
2026-09-29 19:00:18.553250048,-0.06463916015625,-0.32319580078125,10.18186474609375,0.0,0.0,0.0,358.33617509771364,0.32981861372589105,104.70197080883933
2026-09-29 19:00:18.553250048,-0.05027490234375,-0.30883154296875,10.17707666015625,0.0,0.0,0.0,358.3361849162874,0.3301185527016894,104.70209951683468
2026-09-29 19:00:18.553250048,-0.05266894531249999,-0.28489111328125,10.1746826171875,0.0,-0.0010652644360316954,0.0,358.3357968167644,0.3298123642504051,104.70194206739309
2026-09-29 19:00:18.553250048,-0.047880859374999994,-0.28489111328125,10.189046874999999,-0.0010652644360316954,-0.0021305288720633907,0.0,358.33516779038337,0.3291490820473913,104.70179390844271
2026-09-29 19:00:18.568877312,-0.0383046875,-0.28728515624999995,10.22495751953125,0.0,-0.0010652644360316954,0.0,358.33487613567553,0.32877817677808985,104.70163708585693
2026-09-29 19:00:18.568877312,-0.055062988281249996,-0.27770898437499997,10.141166015624998,0.0,0.0,0.0,358.3351641413807,0.328647679577038,104.70147119477133
2026-09-29 19:00:18.631373824,-0.009576171875,-0.3112255859375,10.196229003906248,0.0,0.0,0.0,358.33551586846806,0.32884430387308045,104.70161075856242
2026-09-29 19:00:18.631373824,-0.04069873046875,-0.2681328125,10.107649414062498,0.0,0.0,0.0010652644360316954,358.33573259677166,0.32866035538850624,104.70235788908431
2026-09-29 19:00:18.693894912,-0.01915234375,-0.29925537109375,10.184258789062499,-0.0010652644360316954,-0.0010652644360316954,0.0,358.3357845245265,0.3282911880693208,104.70251521292305
2026-09-29 19:00:18.693894912,-0.043092773437499995,-0.33037792968749996,10.133983886718749,0.0,0.0,-0.0010652644360316954,358.3355879638976,0.3284624476744955,104.7017294750559
2026-09-29 19:00:18.693894912,-0.05745703125,-0.29446728515625,10.1746826171875,0.0,0.0,0.0,358.3358583903748,0.32840866893541576,104.70186678036357
2026-09-29 19:00:18.693894912,-0.067033203125,-0.27531494140624996,10.160318359375,0.0,0.0,0.0,358.33614666560936,0.32835345049431286,104.70200597320152
2026-09-29 19:00:18.693894912,-0.07421533203125,-0.30404345703124996,10.150742187499999,0.0,0.0,0.0,358.3360065397476,0.32831908391489617,104.70184119004534
2026-09-29 19:00:18.787624192,-0.06463916015625,-0.32558984375,10.150742187499999,0.0,-0.0021305288720633907,0.0,358.3358179686966,0.32819698983948226,104.7019881585822
2026-09-29 19:00:18.865748992,-0.07182128906249999,-0.29925537109375,10.18186474609375,0.0,-0.0010652644360316954,0.0,358.33587376347276,0.3271803250677576,104.7018475884979
2026-09-29 19:00:18.865748992,-0.08379150390625,-0.3064375,10.201017089843749,0.0,0.0010652644360316954,0.0,358.3359607895938,0.3278612609067683,104.70166285864236
2026-09-29 19:00:18.865748992,-0.04548681640625,-0.30404345703124996,10.122013671875,-0.0010652644360316954,-0.0010652644360316954,-0.0010652644360316954,358.3358867219151,0.32813794542611807,104.7008777329797
2026-09-29 19:00:18.865748992,-0.06463916015625,-0.33756005859375,10.155530273437499,0.0,0.0,0.0010652644360316954,358.3363321966332,0.32859898642622276,104.70131216801212
2026-09-29 19:00:18.865748992,-0.05027490234375,-0.29925537109375,10.162712402343749,-0.0010652644360316954,0.0,0.0,358.33563845805287,0.3292947012983642,104.70173653118202
2026-09-29 19:00:18.865748992,-0.08618554687499999,-0.28967919921874996,10.19144091796875,0.0,-0.0010652644360316954,0.0,358.3359212221632,0.329102263502991,104.70218958970023
2026-09-29 19:00:18.865748992,-0.035910644531249994,-0.2729208984375,10.21538134765625,0.0,0.0,0.0,358.3354373157739,0.3295366999513103,104.70231900673113
2026-09-29 19:00:18.865748992,-0.05266894531249999,-0.3112255859375,10.141166015624998,0.0,-0.0010652644360316954,0.0,358.33551723911376,0.3288464673386592,104.70217141132561
2026-09-29 19:00:18.865748992,-0.00239404296875,-0.29925537109375,10.1651064453125,-0.0010652644360316954,-0.0021305288720633907,0.0,358.3346786423286,0.32835553880304563,104.70232714133107
2026-09-29 19:00:18.865748992,-0.0143642578125,-0.30883154296875,10.18186474609375,-0.0010652644360316954,0.0,0.0,358.33432669897974,0.32845728917694034,104.70276237727397
2026-09-29 19:00:18.865748992,-0.0383046875,-0.296861328125,10.117225585937499,0.0,0.0,0.0,358.33417925847965,0.32840281786262043,104.70290088838802
2026-09-29 19:00:18.865748992,-0.0143642578125,-0.296861328125,10.198623046875,0.0,-0.0010652644360316954,0.0,358.3344113489532,0.3285769929088124,104.70303090989916
2026-09-29 19:00:18.881375232,-0.011970214843749999,-0.3064375,10.201017089843749,0.0,-0.0010652644360316954,-0.0010652644360316954,358.3350216038778,0.3280656650664357,104.70256902114143
2026-09-29 19:00:18.881375232,-0.04069873046875,-0.28967919921874996,10.1938349609375,-0.0010652644360316954,-0.0010652644360316954,0.0,358.33492524331155,0.32767137452090916,104.70241149690942
2026-09-29 19:00:18.881375232,-0.021546386718749998,-0.26334472656249996,10.2034111328125,0.0,-0.0010652644360316954,0.0,358.33520321168686,0.327365659635237,104.70255947277556
2026-09-29 19:00:18.881375232,-0.047880859374999994,-0.3208017578125,10.189046874999999,0.0,0.0,0.0,358.33584105538046,0.3270245610335044,104.70240260231706
2026-09-29 19:00:18.881375232,-0.026334472656249996,-0.27531494140624996,10.14834814453125,0.0,0.0,0.0,358.33579717160563,0.32669374772342485,104.70255753746379
2026-09-29 19:00:18.881375232,-0.076609375,-0.296861328125,10.16989453125,0.0,0.0,0.0,358.3357641209679,0.32696103948373034,104.70268765602773
2026-09-29 19:00:18.881375232,-0.026334472656249996,-0.30404345703124996,10.141166015624998,0.0,0.0,0.0,358.33566692593473,0.3271999834142041,104.70282640326575
2026-09-29 19:00:18.881375232,-0.06942724609374999,-0.32319580078125,10.162712402343749,0.0,0.0,0.0,358.33516574413403,0.327122821615181,104.70296452719526
2026-09-29 19:00:18.881375232,-0.09336767578124999,-0.28010302734375,10.16989453125,0.0,0.0,0.0,358.33531014942037,0.32728203044725285,104.70310288825513
2026-09-29 19:00:18.881375232,-0.055062988281249996,-0.29925537109375,10.157924316406248,0.0,-0.0010652644360316954,0.0,358.3352104325893,0.3270971911219385,104.70325044752838
2026-09-29 19:00:18.897000704,-0.059851074218749994,-0.296861328125,10.205805175781249,0.0,0.0,0.0,358.33549924342,0.3274727276307187,104.70307562644587
2026-09-29 19:00:18.897000704,-0.059851074218749994,-0.30404345703124996,10.196229003906248,0.0,0.0,0.0,358.33517774692007,0.3272870691797219,104.70322375645668
2026-09-29 19:00:18.912654080,-0.09576171874999999,-0.29446728515625,10.18665283203125,0.0,-0.0021305288720633907,0.0,358.3350556060848,0.32690643367231237,104.70307500532553
2026-09-29 19:00:18.912654080,-0.05745703125,-0.29925537109375,10.138771972656249,-0.0010652644360316954,0.0,-0.0010652644360316954,358.33421319793575,0.3275956247716062,104.70228905632197
2026-09-29 19:00:18.943874048,-0.067033203125,-0.28489111328125,10.167500488281249,0.0,0.0010652644360316954,0.0,358.334375217025,0.32817113470595227,104.70211349144269
2026-09-29 19:00:18.943874048,-0.04069873046875,-0.32319580078125,10.150742187499999,0.0,0.0,0.0,358.3341191560303,0.32841262747154343,104.70194627627984
2026-09-29 19:00:18.959520768,-0.04548681640625,-0.31601367187499996,10.198623046875,0.0,0.0,0.0,358.3336664712269,0.3289540622960478,104.70207582381863
2026-09-29 19:00:18.959520768,-0.026334472656249996,-0.3112255859375,10.1651064453125,0.0,0.0,0.0,358.33420812339966,0.3290219329016564,104.70190974163661
2026-09-29 19:00:18.975128064,-0.05745703125,-0.29925537109375,10.189046874999999,0.0,0.0,0.0010652644360316954,358.3341548486309,0.32892227048888156,104.70235367488192
2026-09-29 19:00:19.006497280,-0.04069873046875,-0.3112255859375,10.179470703124998,0.0,0.0,0.0,358.3343463719022,0.32849375481326776,104.70250999245495
2026-09-29 19:00:19.006497280,-0.07421533203125,-0.29446728515625,10.162712402343749,-0.0010652644360316954,0.0,-0.0010652644360316954,358.33384883791933,0.32901789797612163,104.70202037442063
2026-09-29 19:00:19.022171392,-0.076609375,-0.28010302734375,10.138771972656249,-0.0010652644360316954,0.0,0.0,358.33328070499874,0.32913081829717633,104.70154816610395
2026-09-29 19:00:19.037804288,-0.09815576171875,-0.33037792968749996,10.1651064453125,0.0,0.0,0.0,358.3332800423899,0.3295607274542906,104.70198366196409
2026-09-29 19:00:19.037804288,-0.059851074218749994,-0.31840771484374997,10.205805175781249,0.0,0.0010652644360316954,0.0,358.3336406517996,0.3309829083602869,104.70239999223968
2026-09-29 19:00:19.053425664,-0.028728515625,-0.3112255859375,10.17707666015625,-0.0010652644360316954,-0.0021305288720633907,0.0,358.3330946512831,0.33038633036554704,104.70286075363357
2026-09-29 19:00:19.053425664,-0.028728515625,-0.29207324218749997,10.189046874999999,0.0,-0.0010652644360316954,0.0,358.3326126063739,0.32970096127591375,104.70240668776297
2026-09-29 19:00:19.053425664,-0.0383046875,-0.3064375,10.17707666015625,0.0,-0.0010652644360316954,0.0,358.33272051338156,0.3295152280657397,104.70223974951517
2026-09-29 19:00:19.053425664,-0.04069873046875,-0.33277197265624997,10.18186474609375,0.0,0.0,0.0,358.3328086416529,0.32952600366002593,104.70237771280571
2026-09-29 19:00:19.069058816,-0.035910644531249994,-0.27531494140624996,10.1746826171875,0.0,0.0,-0.0010652644360316954,358.3331702480071,0.32950716103493133,104.70160047092908
2026-09-29 19:00:19.069058816,-0.01915234375,-0.29446728515625,10.150742187499999,0.0,-0.0021305288720633907,0.0,358.3334666304355,0.32877588320727386,104.70175753797713
2026-09-29 19:00:19.100302080,-0.05266894531249999,-0.30404345703124996,10.179470703124998,-0.0010652644360316954,-0.0010652644360316954,0.0,358.332810177292,0.32800380064363094,104.70191432849559
2026-09-29 19:00:19.115926784,-0.05745703125,-0.33037792968749996,10.1746826171875,0.0,0.0,0.0,358.3323889950794,0.32836464190299613,104.70173894845001
2026-09-29 19:00:19.147559680,-0.043092773437499995,-0.2729208984375,10.198623046875,0.0,0.0,0.0010652644360316954,358.3322612405421,0.32927254063477346,104.70216297584598
2026-09-29 19:00:19.147559680,-0.03112255859375,-0.25137451171874997,10.21059326171875,0.0,-0.0021305288720633907,0.0,358.3323350642971,0.328786395544155,104.7026254710642
2026-09-29 19:00:19.147559680,-0.0383046875,-0.3208017578125,10.16989453125,0.0,0.0,0.0,358.3327130738767,0.3286279995031415,104.70246005375839
2026-09-29 19:00:19.147559680,-0.021546386718749998,-0.3208017578125,10.15313623046875,0.0,-0.0010652644360316954,0.0,358.33286730578436,0.3284905211827758,104.70290353045831
2026-09-29 19:00:19.147559680,-0.09336767578124999,-0.296861328125,10.1651064453125,-0.0010652644360316954,0.0,0.0,358.33216217861604,0.3285520701699636,104.7033367094251
2026-09-29 19:00:19.147559680,-0.047880859374999994,-0.2824970703125,10.201017089843749,0.0,-0.0021305288720633907,0.0,358.3321882094113,0.32818273268623405,104.70318703885928
2026-09-29 19:00:19.194440960,-0.026334472656249996,-0.31601367187499996,10.15313623046875,0.0,-0.0010652644360316954,0.0,358.33216362713233,0.32784353415060435,104.7036401086872
2026-09-29 19:00:19.194440960,-0.035910644531249994,-0.296861328125,10.160318359375,0.0,0.0,0.0,358.33240138678315,0.3277471793029985,104.70408400768461
2026-09-29 19:00:19.210064384,-0.059851074218749994,-0.2729208984375,10.16989453125,0.0,-0.0010652644360316954,0.0,358.33275834534777,0.3276314242616477,104.70392733501502
2026-09-29 19:00:19.210064384,-0.05266894531249999,-0.296861328125,10.21538134765625,0.0,-0.0010652644360316954,0.0,358.3331798949753,0.3278341988929413,104.70376232764049
2026-09-29 19:00:19.241313024,-0.04069873046875,-0.2681328125,10.196229003906248,-0.0010652644360316954,-0.0010652644360316954,0.0,358.33315069025406,0.32775823447423946,104.70360523885496
2026-09-29 19:00:19.241313024,-0.07900341796874999,-0.31361962890624995,10.16989453125,0.0,-0.0010652644360316954,0.0,358.33343795166115,0.3272460523554428,104.70344992831575
2026-09-29 19:00:19.241313024,-0.023940429687499997,-0.27770898437499997,10.15313623046875,0.0,0.0,0.0,358.333808811716,0.3269443093916572,104.70359663909296
2026-09-29 19:00:19.241313024,-0.06942724609374999,-0.28967919921874996,10.1746826171875,0.0,0.0,0.0,358.33407271309966,0.3269285118527769,104.70404070090343
2026-09-29 19:00:19.241313024,-0.08618554687499999,-0.27531494140624996,10.122013671875,0.0,0.0,0.0,358.33449562292793,0.3265317094512043,104.70419832441407
2026-09-29 19:00:19.241313024,-0.06942724609374999,-0.33756005859375,10.179470703124998,-0.0010652644360316954,-0.0010652644360316954,0.0,358.33422538854455,0.32646083626255284,104.70404162133455
2026-09-29 19:00:19.256963072,-0.0813974609375,-0.31361962890624995,10.162712402343749,0.0,0.0,0.0,358.3336214345089,0.3272283970845675,104.70446642794873
2026-09-29 19:00:19.288556288,-0.05266894531249999,-0.29446728515625,10.172288574218749,0.0,0.0,0.0,358.33362489714807,0.3278135335447769,104.70459502944598
2026-09-29 19:00:19.288556288,-0.0383046875,-0.29925537109375,10.2034111328125,0.0,0.0,0.0,358.3338722720799,0.32803656744076476,104.70472513070474
2026-09-29 19:00:19.304181760,-0.07900341796874999,-0.26095068359374995,10.141166015624998,0.0,-0.0010652644360316954,0.0,358.333393639084,0.32807522064702815,104.70486344810683
2026-09-29 19:00:19.304181760,-0.055062988281249996,-0.31361962890624995,10.13158984375,0.0,0.0,0.0,358.3333465120195,0.328468738583454,104.70529873448042
2026-09-29 19:00:19.304181760,-0.0622451171875,-0.27770898437499997,10.1651064453125,-0.0010652644360316954,0.0,0.0010652644360316954,358.33316996918074,0.3292412532501756,104.70602934521298
2026-09-29 19:00:19.351058688,-0.05027490234375,-0.28967919921874996,10.17707666015625,-0.0010652644360316954,-0.0010652644360316954,0.0,358.33298312941355,0.32912256343711904,104.70587301402627
2026-09-29 19:00:19.351058688,-0.059851074218749994,-0.28489111328125,10.160318359375,0.0,-0.0010652644360316954,0.0,358.33270726545925,0.3287744966916345,104.70602134880534
2026-09-29 19:00:19.397930752,-0.0383046875,-0.30164941406249995,10.229745605468748,0.0,0.0,-0.0010652644360316954,358.33271883768356,0.32914980048877684,104.70585568834512
2026-09-29 19:00:19.413555968,-0.04548681640625,-0.335166015625,10.1938349609375,0.0,0.0,0.0,358.33299626276687,0.32900573883507356,104.70568975250083
2026-09-29 19:00:19.413555968,-0.0335166015625,-0.30404345703124996,10.1938349609375,0.0,-0.0010652644360316954,0.0,358.33291709483103,0.32893665423096985,104.70582680574375
2026-09-29 19:00:19.444969216,-0.04069873046875,-0.32798388671874995,10.145954101562499,0.0,0.0,0.0,358.3331237984835,0.3286873209432596,104.70566929645074
2026-09-29 19:00:19.444969216,-0.05266894531249999,-0.28728515624999995,10.21538134765625,0.0,0.0,0.0,358.33342321466296,0.32854091352692427,104.70580673952131
2026-09-29 19:00:19.460598016,-0.05266894531249999,-0.31840771484374997,10.13158984375,0.0,-0.0010652644360316954,0.0,358.33366028284007,0.3282845271195771,104.70595443257265
2026-09-29 19:00:19.460598016,-0.01915234375,-0.28728515624999995,10.15313623046875,0.0,0.0,-0.0010652644360316954,358.33365859058546,0.32825436245960443,104.70548357548266
2026-09-29 19:00:19.460598016,-0.08857958984374999,-0.32558984375,10.212987304687498,-0.0010652644360316954,-0.0010652644360316954,0.0,358.33323556889786,0.32729221787306595,104.70533478900911
2026-09-29 19:00:19.491847424,-0.05027490234375,-0.25616259765625,10.189046874999999,0.0,0.0,0.0,358.33286390242273,0.3278156249478935,104.70577705079258
2026-09-29 19:00:19.507472640,-0.026334472656249996,-0.31601367187499996,10.1268017578125,0.0,-0.0010652644360316954,0.0,358.33340234164064,0.3280449376886667,104.70561254813495
2026-09-29 19:00:19.507472640,-0.047880859374999994,-0.296861328125,10.18186474609375,0.0,0.0,-0.0010652644360316954,358.3331868780473,0.3284442726495246,104.70481776571032
2026-09-29 19:00:19.507472640,-0.01915234375,-0.3208017578125,10.201017089843749,-0.0010652644360316954,0.0,0.0,358.3327281005802,0.32818616020889757,104.70526127438316
2026-09-29 19:00:19.507472640,-0.043092773437499995,-0.32319580078125,10.172288574218749,0.0,-0.0021305288720633907,0.0,358.33291184493595,0.32767268797017696,104.70510359847096
2026-09-29 19:00:19.507472640,-0.05745703125,-0.33037792968749996,10.150742187499999,0.0,0.0,0.0,358.33252540756035,0.32759777358980724,104.7049356460969
2026-09-29 19:00:19.507472640,-0.0143642578125,-0.29925537109375,10.196229003906248,-0.0010652644360316954,0.0,0.0,358.33173412318126,0.3281334744517784,104.70475993348487
2026-09-29 19:00:19.523098880,-0.0335166015625,-0.3112255859375,10.21059326171875,0.0,-0.0010652644360316954,0.0,358.33156857729784,0.32796878373581895,104.7052033214359
2026-09-29 19:00:19.523098880,-0.047880859374999994,-0.28489111328125,10.2034111328125,0.0,0.0,0.0,358.33094970471365,0.3283197535137617,104.70562814224137
2026-09-29 19:00:19.523098880,-0.0622451171875,-0.28728515624999995,10.1363779296875,0.0,0.0,0.0,358.3311520340679,0.3282389393529837,104.7057668504618
2026-09-29 19:00:19.523098880,-0.0143642578125,-0.3064375,10.1363779296875,0.0,0.0,0.0,358.33132856798954,0.32852742020630704,104.70621220552059
2026-09-29 19:00:19.523098880,-0.07900341796874999,-0.31361962890624995,10.212987304687498,0.0,-0.0010652644360316954,-0.0010652644360316954,358.3312786159952,0.3286529012283509,104.70573939777412
2026-09-29 19:00:19.570082816,-0.0909736328125,-0.29925537109375,10.18186474609375,0.0,0.0,0.0,358.33123881000336,0.32912554542289146,104.70586947484071
2026-09-29 19:00:19.585600768,-0.01915234375,-0.29446728515625,10.205805175781249,0.0,0.0,0.0,358.3314955216017,0.3288438761414772,104.70601741021828
2026-09-29 19:00:19.585600768,-0.04069873046875,-0.31361962890624995,10.16989453125,-0.0010652644360316954,-0.0010652644360316954,0.0,358.33107337330677,0.3289251993168188,104.70584202549284
2026-09-29 19:00:19.616899840,-0.028728515625,-0.28728515624999995,10.14834814453125,0.0,-0.0010652644360316954,0.0,358.3308813701195,0.32859071732152556,104.70598903767328
2026-09-29 19:00:19.616899840,-0.059851074218749994,-0.30883154296875,10.2034111328125,0.0010652644360316954,0.0,0.0010652644360316954,358.3310734447083,0.3289820479421453,104.70642375660566
2026-09-29 19:00:19.616899840,-0.0622451171875,-0.27531494140624996,10.14834814453125,0.0,-0.0010652644360316954,0.0,358.3314127226073,0.3284519620834168,104.70627417283276
2026-09-29 19:00:19.616899840,-0.04069873046875,-0.29925537109375,10.17707666015625,-0.0010652644360316954,-0.0010652644360316954,0.0,358.33106250419064,0.3283150618755683,104.70672709417215
2026-09-29 19:00:19.616899840,-0.04548681640625,-0.29207324218749997,10.16989453125,0.0,0.0,0.0,358.3312384939139,0.3277534067872817,104.70717965182298
2026-09-29 19:00:19.616899840,-0.05027490234375,-0.3064375,10.2034111328125,-0.0010652644360316954,-0.0010652644360316954,0.0,358.3310980200258,0.3278279322559167,104.7076231876735
2026-09-29 19:00:19.632473600,-0.0813974609375,-0.28489111328125,10.129195800781249,0.0,-0.0021305288720633907,0.0,358.3307243431539,0.32680948544285815,104.70748363821967
2026-09-29 19:00:19.648101376,-0.047880859374999994,-0.27052685546875,10.201017089843749,0.0,-0.0010652644360316954,0.0,358.33103920913237,0.3267762345551054,104.70732674105855
2026-09-29 19:00:19.648101376,-0.055062988281249996,-0.29446728515625,10.15313623046875,0.0,-0.0010652644360316954,-0.0010652644360316954,358.3311894696123,0.326275778435495,104.707170762982
2026-09-29 19:00:19.663725312,-0.0813974609375,-0.3112255859375,10.179470703124998,-0.0010652644360316954,0.0,0.0,358.33081230456787,0.32651175320710024,104.70761465992484
2026-09-29 19:00:19.710599424,-0.047880859374999994,-0.30404345703124996,10.157924316406248,0.0,-0.0010652644360316954,0.0,358.33061922355944,0.32688392110171993,104.70775278151044
2026-09-29 19:00:19.710599424,-0.04069873046875,-0.28967919921874996,10.14356005859375,0.0,0.0,0.0,358.3307750105679,0.3265160369679686,104.70790006632166
2026-09-29 19:00:19.710599424,-0.01915234375,-0.29446728515625,10.18665283203125,0.0,-0.0010652644360316954,0.0,358.33051714634917,0.3256191317365801,104.70806444930663
2026-09-29 19:00:19.710599424,-0.028728515625,-0.28010302734375,10.14834814453125,0.0,-0.0010652644360316954,-0.0010652644360316954,358.33019990167634,0.32500028027962946,104.70729750643608
2026-09-29 19:00:19.757474560,-0.04548681640625,-0.3064375,10.155530273437499,0.0,-0.0021305288720633907,0.0,358.3303153411849,0.32483466367450503,104.70743739906355
2026-09-29 19:00:19.757474560,-0.05266894531249999,-0.28489111328125,10.145954101562499,0.0,-0.0010652644360316954,0.0,358.33009818021736,0.3247996198159456,104.70757535649426
2026-09-29 19:00:19.788722688,-0.035910644531249994,-0.34713623046875,10.217775390624999,0.0,0.0,0.0,358.33067276377454,0.32501714533783904,104.70771435300954
2026-09-29 19:00:19.788722688,-0.028728515625,-0.31601367187499996,10.102861328125,0.0,-0.0010652644360316954,0.0010652644360316954,358.33096865585037,0.3246632378316917,104.70877574720717
2026-09-29 19:00:19.804426752,-0.06942724609374999,-0.3064375,10.18665283203125,0.0,0.0,0.0,358.33110317827027,0.3248572793543482,104.70891405171801
2026-09-29 19:00:19.804426752,-0.055062988281249996,-0.27531494140624996,10.155530273437499,-0.0010652644360316954,0.0,0.0,358.33072047345155,0.32542844508387325,104.70934915490004
2026-09-29 19:00:19.820056832,-0.055062988281249996,-0.30404345703124996,10.189046874999999,0.0,0.0,0.0,358.33106045942503,0.3250938742064348,104.70919245950898
2026-09-29 19:00:19.820056832,-0.07182128906249999,-0.2824970703125,10.167500488281249,0.0,0.0,-0.0010652644360316954,358.3308725239408,0.3251041584415712,104.70902569101267
2026-09-29 19:00:19.820056832,-0.028728515625,-0.30404345703124996,10.196229003906248,-0.0010652644360316954,0.0,0.0,358.3308592568509,0.32556410794856655,104.70885089742168
2026-09-29 19:00:19.820056832,-0.055062988281249996,-0.29925537109375,10.1651064453125,0.0,0.0,-0.0010652644360316954,358.33079412594407,0.32532293122960165,104.70837795587487
2026-09-29 19:00:19.835685632,-0.07182128906249999,-0.29925537109375,10.19144091796875,0.0,-0.0010652644360316954,0.0,358.3303053349249,0.32527868214389916,104.70821117345575
2026-09-29 19:00:19.835685632,-0.06463916015625,-0.3208017578125,10.246503906249998,0.0,-0.0010652644360316954,0.0,358.33026330003185,0.3250896914917217,104.70805399313603
2026-09-29 19:00:19.835685632,-0.05266894531249999,-0.30883154296875,10.18665283203125,-0.0010652644360316954,-0.0010652644360316954,0.0,358.32972128087283,0.32503443253884434,104.70758184209922
2026-09-29 19:00:19.851424768,-0.04069873046875,-0.2824970703125,10.167500488281249,-0.0010652644360316954,-0.0021305288720633907,0.0,358.328982483373,0.32430403032837213,104.70805222214587
2026-09-29 19:00:19.882556160,-0.06463916015625,-0.2824970703125,10.157924316406248,0.0,0.0,0.0,358.32886874741286,0.324297957852666,104.70819094451294
2026-09-29 19:00:19.913805824,-0.059851074218749994,-0.27770898437499997,10.22016943359375,0.0,0.0,-0.0010652644360316954,358.3293918204368,0.32446210973225686,104.70741464057693
2026-09-29 19:00:19.913805824,-0.059851074218749994,-0.3208017578125,10.145954101562499,0.0,0.0,0.0,358.32935638167953,0.3248901354579996,104.70754488654413
2026-09-29 19:00:19.913805824,-0.07900341796874999,-0.31361962890624995,10.157924316406248,-0.0021305288720633907,0.0,0.0,358.32874657707475,0.3257869372558669,104.70827466828456
2026-09-29 19:00:19.913805824,-0.059851074218749994,-0.3112255859375,10.133983886718749,0.0,0.0,0.0,358.32810309195844,0.3263033296046033,104.708708142462
2026-09-29 19:00:19.913805824,-0.05266894531249999,-0.29207324218749997,10.236927734375,0.0,0.0,-0.0010652644360316954,358.32799436071696,0.32698838038657824,104.70852394712225
2026-09-29 19:00:19.913805824,-0.05027490234375,-0.31840771484374997,10.16989453125,-0.0010652644360316954,0.0,0.0,358.32736494030206,0.3273889182186292,104.70834908881126
2026-09-29 19:00:19.913805824,-0.01675830078125,-0.29925537109375,10.179470703124998,-0.0010652644360316954,-0.0010652644360316954,0.0,358.3265296873593,0.3275872465066103,104.70848713962927
2026-09-29 19:00:19.945081600,-0.043092773437499995,-0.27052685546875,10.160318359375,0.0,0.0,0.0,358.326176858119,0.32771274320406596,104.70831212989634
2026-09-29 19:00:19.960682240,-0.0335166015625,-0.28967919921874996,10.239321777343749,0.0,-0.0010652644360316954,0.0,358.3258259523663,0.3277480237950817,104.70784114748488
2026-09-29 19:00:19.991930624,-0.047880859374999994,-0.28728515624999995,10.229745605468748,0.0,0.0,0.0,358.3257800506285,0.32763113248306347,104.70768394970602
2026-09-29 19:00:20.007556352,-0.03112255859375,-0.28489111328125,10.14834814453125,0.0,0.0,0.0,358.32557358374186,0.3276967068319914,104.70781316190775
2026-09-29 19:00:20.007556352,-0.035910644531249994,-0.32798388671874995,10.21059326171875,0.0,0.0,0.0010652644360316954,358.32520120936664,0.3276455146853042,104.70886711871357
2026-09-29 19:00:20.007556352,-0.05745703125,-0.30164941406249995,10.246503906249998,0.0,0.0,0.0,358.32529232084903,0.32721992736727473,104.70901404485741
2026-09-29 19:00:20.007556352,-0.08618554687499999,-0.31601367187499996,10.17707666015625,0.0,0.0,0.0,358.32597683012796,0.3270111782979703,104.70885758218188
2026-09-29 19:00:20.023182848,-0.026334472656249996,-0.31361962890624995,10.11961962890625,0.0,0.0,0.0,358.3260880499902,0.3271807561504349,104.70838566169927
2026-09-29 19:00:20.023182848,-0.05266894531249999,-0.296861328125,10.2034111328125,-0.0010652644360316954,-0.0010652644360316954,0.0,358.3254507725942,0.32692338704726714,104.70822677442953
2026-09-29 19:00:20.023182848,-0.055062988281249996,-0.296861328125,10.15313623046875,0.0,0.0,0.0,358.32630477473396,0.32684403567921283,104.70837468798115
2026-09-29 19:00:20.038807296,-0.047880859374999994,-0.27531494140624996,10.184258789062499,0.0,-0.0010652644360316954,0.0,358.3264107831135,0.3265975088976985,104.70821833645545
2026-09-29 19:00:20.038807296,-0.06463916015625,-0.27531494140624996,10.138771972656249,0.0,0.0,0.0,358.32641895352134,0.32645859361639795,104.70805253068053
2026-09-29 19:00:20.054433024,-0.026334472656249996,-0.3064375,10.236927734375,0.0,-0.0021305288720633907,-0.0010652644360316954,358.3267592877262,0.32550184046338215,104.70760860054163
2026-09-29 19:00:20.085680896,-0.09576171874999999,-0.2729208984375,10.21538134765625,0.0,-0.0010652644360316954,-0.0010652644360316954,358.32755365972224,0.3245836409443121,104.70716377008887
2026-09-29 19:00:20.101330176,-0.028728515625,-0.36150048828125,10.14834814453125,0.0,0.0,0.0,358.3278392453958,0.3252231729779854,104.70729397955145
2026-09-29 19:00:20.101330176,-0.05745703125,-0.32319580078125,10.172288574218749,0.0,0.0,0.0,358.32705661132144,0.32548607430567766,104.70711651762417
2026-09-29 19:00:20.116932096,-0.05266894531249999,-0.296861328125,10.21059326171875,-0.0010652644360316954,-0.0010652644360316954,0.0,358.32658806153233,0.3256229801187979,104.70725490784446
2026-09-29 19:00:20.116932096,-0.067033203125,-0.296861328125,10.1746826171875,-0.0010652644360316954,0.0,0.0,358.3260851985711,0.32550748425713555,104.70739304751874
2026-09-29 19:00:20.116932096,-0.011970214843749999,-0.3112255859375,10.102861328125,0.0,-0.0010652644360316954,0.0,358.3260594606326,0.3252236216559753,104.7072359661376
2026-09-29 19:00:20.132558336,-0.067033203125,-0.3064375,10.162712402343749,0.0,-0.0010652644360316954,0.0,358.3258120387875,0.3251348766334458,104.70676372881947
2026-09-29 19:00:20.132558336,-0.04069873046875,-0.28967919921874996,10.22495751953125,-0.0010652644360316954,-0.0021305288720633907,0.0010652644360316954,358.3256733676048,0.3246660455529091,104.70753003946164
2026-09-29 19:00:20.148182272,-0.026334472656249996,-0.30404345703124996,10.167500488281249,0.0,0.0,0.0,358.32592733948843,0.32464287207047177,104.70766897388613
2026-09-29 19:00:20.148182272,-0.021546386718749998,-0.2824970703125,10.155530273437499,0.0,-0.0010652644360316954,0.0,358.32638571351436,0.32425617044384203,104.70751121589615
2026-09-29 19:00:20.179431168,-0.04069873046875,-0.3064375,10.1651064453125,0.0,-0.0010652644360316954,0.0,358.32666892239615,0.3239955315002007,104.70795550085029
2026-09-29 19:00:20.179431168,-0.07182128906249999,-0.3064375,10.1746826171875,0.0,-0.0010652644360316954,-0.0010652644360316954,358.32713072204956,0.3236924759562404,104.7074927090624
2026-09-29 19:00:20.227422976,-0.07421533203125,-0.29925537109375,10.15313623046875,0.0,0.0,0.0,358.32734878881723,0.3235644867592677,104.70794554787408
2026-09-29 19:00:20.227422976,-0.076609375,-0.296861328125,10.16989453125,0.0,0.0,0.0,358.3268714257396,0.323523245586523,104.70777872390222
2026-09-29 19:00:20.227422976,-0.01675830078125,-0.28489111328125,10.1938349609375,0.0,0.0,0.0,358.3272797269628,0.32321735103187754,104.70762060568235
2026-09-29 19:00:20.258055424,-0.05266894531249999,-0.26334472656249996,10.21059326171875,0.0,0.0,0.0,358.3277745420348,0.3227255768760197,104.70746301030408
2026-09-29 19:00:20.258055424,-0.07182128906249999,-0.27770898437499997,10.16989453125,0.0,-0.0010652644360316954,0.0,358.327860074078,0.3221409125075504,104.7073154862116
2026-09-29 19:00:20.258055424,-0.06942724609374999,-0.3064375,10.189046874999999,0.0,0.0,-0.0010652644360316954,358.32855939668707,0.32296373092033176,104.70713252574039
2026-09-29 19:00:20.289305856,-0.011970214843749999,-0.3064375,10.1746826171875,0.0,0.0,0.0,358.3288426890947,0.3233392597226137,104.70665106771239
2026-09-29 19:00:20.304932608,-0.047880859374999994,-0.3112255859375,10.196229003906248,-0.0010652644360316954,-0.0010652644360316954,0.0,358.3285784624652,0.32344601856774174,104.70647648833067
2026-09-29 19:00:20.304932608,-0.05266894531249999,-0.26334472656249996,10.145954101562499,-0.0010652644360316954,0.0,0.0,358.3279278506791,0.3234445002185049,104.70631054432366
2026-09-29 19:00:20.304932608,-0.0622451171875,-0.2729208984375,10.205805175781249,0.0,0.0,0.0,358.32832304977734,0.32349495954337915,104.70645036455078
2026-09-29 19:00:20.320557312,-0.06942724609374999,-0.3064375,10.155530273437499,0.0,-0.0010652644360316954,0.0,358.32851950096045,0.32358148816463544,104.70659960360244
2026-09-29 19:00:20.320557312,-0.05266894531249999,-0.32319580078125,10.14834814453125,0.0,-0.0010652644360316954,0.0,358.32902414493935,0.3234540121632202,104.70705216746343
2026-09-29 19:00:20.320557312,-0.043092773437499995,-0.27531494140624996,10.1938349609375,0.0,0.0,0.0,358.3290694557904,0.3239263828059774,104.70718102566889
2026-09-29 19:00:20.320557312,-0.06463916015625,-0.28010302734375,10.1651064453125,-0.0010652644360316954,-0.0010652644360316954,0.0,358.3288662383865,0.3234471227651705,104.70702465602723
2026-09-29 19:00:20.320557312,-0.0047880859375,-0.3112255859375,10.14834814453125,-0.0021305288720633907,0.0,0.0,358.3279069804076,0.3233055511646098,104.70746880115735
2026-09-29 19:00:20.320557312,-0.07182128906249999,-0.28728515624999995,10.124407714843748,0.0,0.0,0.0,358.3277109119918,0.323412699939336,104.70729290578466
2026-09-29 19:00:20.336183296,-0.04548681640625,-0.29446728515625,10.155530273437499,0.0,0.0,0.0,358.32846996725857,0.32385924584208553,104.707424101715
2026-09-29 19:00:20.336183296,-0.0622451171875,-0.3064375,10.217775390624999,0.0,-0.0010652644360316954,0.0,358.3283391891809,0.3238188488842228,104.70725758631436
2026-09-29 19:00:20.367455488,-0.05266894531249999,-0.26334472656249996,10.18186474609375,0.0,-0.0010652644360316954,0.0010652644360316954,358.32879994272395,0.32362571736873086,104.70831990620769
2026-09-29 19:00:20.367455488,-0.055062988281249996,-0.26573876953125,10.124407714843748,0.0,0.0,0.0,358.3297145496206,0.32389366888804366,104.70875710597275
2026-09-29 19:00:20.398681088,-0.0909736328125,-0.296861328125,10.162712402343749,0.0,0.0,-0.0010652644360316954,358.33038459714646,0.32379214276409224,104.70828661147733
2026-09-29 19:00:20.398681088,-0.0143642578125,-0.33037792968749996,10.179470703124998,0.0,0.0,0.0,358.3298371097368,0.3244914991047044,104.70811049969856
2026-09-29 19:00:20.398681088,-0.0813974609375,-0.28728515624999995,10.14834814453125,0.0,-0.0010652644360316954,0.0,358.32987793691194,0.32437034296871,104.70794316387781
2026-09-29 19:00:20.429931008,-0.035910644531249994,-0.2537685546875,10.160318359375,0.0,-0.0010652644360316954,0.0,358.32986392270664,0.32426228101302923,104.70778616639514
2026-09-29 19:00:20.446753536,-0.035910644531249994,-0.3208017578125,10.16989453125,0.0,-0.0010652644360316954,0.0,358.3300096897568,0.32329777882117283,104.70809048707657
2026-09-29 19:00:20.450230016,-0.05027490234375,-0.28489111328125,10.196229003906248,-0.0010652644360316954,-0.0010652644360316954,0.0,358.3293484686368,0.3229492887232442,104.70823657975612
2026-09-29 19:00:20.477666048,-0.01915234375,-0.31601367187499996,10.157924316406248,-0.0010652644360316954,-0.0010652644360316954,-0.0010652644360316954,358.3291056600486,0.32308897587970686,104.70746113355138
2026-09-29 19:00:20.524823808,-0.05745703125,-0.27770898437499997,10.179470703124998,0.0,0.0,0.0,358.32881697302406,0.32335075364884114,104.70758986282382
2026-09-29 19:00:20.524823808,-0.05745703125,-0.30404345703124996,10.201017089843749,0.0,-0.0010652644360316954,0.0,358.32886480927823,0.3233363957334436,104.70742429538045
2026-09-29 19:00:20.524823808,-0.035910644531249994,-0.29207324218749997,10.212987304687498,-0.0010652644360316954,-0.0010652644360316954,0.0,358.328268123073,0.32326794041924606,104.70726741505388
2026-09-29 19:00:20.540449024,-0.043092773437499995,-0.29925537109375,10.217775390624999,0.0,-0.0010652644360316954,0.0,358.32784197628376,0.3229103451057736,104.70802494642564
2026-09-29 19:00:20.556073472,-0.05745703125,-0.29207324218749997,10.198623046875,0.0,0.0,0.0,358.3274136057413,0.322572983417882,104.70817233285004
2026-09-29 19:00:20.556073472,-0.055062988281249996,-0.33995410156249994,10.189046874999999,0.0,0.0,0.0010652644360316954,358.32760391896306,0.3229812949282182,104.70830206901032
2026-09-29 19:00:20.556073472,-0.05027490234375,-0.30404345703124996,10.189046874999999,0.0,-0.0010652644360316954,0.0,358.3271618785833,0.3226927008770808,104.70875285340539
2026-09-29 19:00:20.556073472,-0.0335166015625,-0.29207324218749997,10.189046874999999,0.0,0.0,0.0,358.3274039440241,0.32252485469634623,104.70920566348765
2026-09-29 19:00:20.556073472,-0.028728515625,-0.28728515624999995,10.217775390624999,-0.0021305288720633907,-0.0021305288720633907,0.0,358.32666463872516,0.3214641957161164,104.70906589742114
2026-09-29 19:00:20.556073472,-0.067033203125,-0.30164941406249995,10.172288574218749,0.0,0.0,0.0,358.3275842602226,0.3215148850704676,104.7092052100175
2026-09-29 19:00:20.556073472,-0.055062988281249996,-0.28010302734375,10.0980732421875,0.0,0.0,0.0,358.327535127158,0.3219783135805743,104.70933525234327
2026-09-29 19:00:20.587325696,-0.023940429687499997,-0.31601367187499996,10.1746826171875,0.0,0.0,0.0,358.3277449245357,0.32202756972776525,104.70977908604101
2026-09-29 19:00:20.603049216,-0.0383046875,-0.3112255859375,10.189046874999999,0.0,0.0,0.0,358.32749484443815,0.3220406333211378,104.70990802859443
2026-09-29 19:00:20.603049216,-0.04548681640625,-0.27052685546875,10.18186474609375,0.0,0.0,0.0,358.3275883091893,0.3222988909866555,104.71034224094738
2026-09-29 19:00:20.650184192,-0.07900341796874999,-0.32319580078125,10.172288574218749,0.0,0.0,0.0,358.32786170681396,0.32224740831379634,104.71017618795317
2026-09-29 19:00:20.650184192,-0.0335166015625,-0.33277197265624997,10.15313623046875,0.0,0.0,0.0,358.32746768391183,0.3225807569560188,104.71000815142669
2026-09-29 19:00:20.650184192,-0.05745703125,-0.27770898437499997,10.145954101562499,0.0,0.0,0.0,358.32754475173044,0.32246503995734277,104.70984093169373
2026-09-29 19:00:20.681442304,-0.067033203125,-0.2824970703125,10.189046874999999,0.0,-0.0010652644360316954,0.0,358.3276132742219,0.32248567441715764,104.71028563642872
2026-09-29 19:00:20.681442304,-0.067033203125,-0.32558984375,10.145954101562499,0.0,0.0,0.0,358.32818332349837,0.32255163959332067,104.71012838718066
2026-09-29 19:00:20.681442304,-0.0909736328125,-0.27770898437499997,10.198623046875,0.0,-0.0010652644360316954,0.0,358.328284854805,0.3227004036890702,104.70996138509831
2026-09-29 19:00:20.681442304,-0.055062988281249996,-0.30404345703124996,10.18665283203125,-0.0010652644360316954,0.0,0.0,358.32750333256064,0.3231854186230829,104.71010147748423
2026-09-29 19:00:20.681442304,-0.047880859374999994,-0.27770898437499997,10.167500488281249,-0.0010652644360316954,0.0,0.0,358.3269742278948,0.32346775420790835,104.71053574347974
2026-09-29 19:00:20.681442304,-0.043092773437499995,-0.2729208984375,10.201017089843749,0.0,0.0,0.0,358.32728061321654,0.3237163470724621,104.71066611811388
2026-09-29 19:00:20.681442304,-0.06463916015625,-0.28489111328125,10.1746826171875,0.0,0.0,0.0,358.3279682965791,0.32375055901832656,104.71080584304623
2026-09-29 19:00:20.712690688,-0.023940429687499997,-0.31601367187499996,10.145954101562499,0.0,0.0,0.0,358.32768494476755,0.32374912975728515,104.71064008859378
2026-09-29 19:00:20.712690688,-0.023940429687499997,-0.31361962890624995,10.167500488281249,0.0,-0.0010652644360316954,0.0,358.32764633229647,0.3235507854372202,104.71047240623692
2026-09-29 19:00:20.728314112,-0.043092773437499995,-0.27770898437499997,10.21538134765625,0.0,0.0,0.0010652644360316954,358.32714196507004,0.3236828607230738,104.71121886295093
2026-09-29 19:00:20.728314112,-0.0622451171875,-0.32798388671874995,10.21059326171875,0.0,-0.0010652644360316954,0.0,358.32702601441224,0.3236986876388655,104.71166241738943
2026-09-29 19:00:20.759562752,-0.0383046875,-0.27770898437499997,10.1938349609375,0.0,0.0,0.0,358.3277135936443,0.32361749961050096,104.71150418114951
2026-09-29 19:00:20.759562752,-0.0622451171875,-0.26095068359374995,10.18186474609375,0.0,0.0,0.0,358.3276595993355,0.3233416267704296,104.71104195027809
2026-09-29 19:00:20.790812928,-0.047880859374999994,-0.30164941406249995,10.162712402343749,0.0,0.0,0.0,358.32800784129194,0.32358000407679477,104.71087626125403
2026-09-29 19:00:20.790812928,-0.09336767578124999,-0.30164941406249995,10.1651064453125,0.0,-0.0021305288720633907,0.0,358.3284544512433,0.3230309470909579,104.7110324335747
2026-09-29 19:00:20.790812928,-0.021546386718749998,-0.30883154296875,10.179470703124998,0.0,0.0,0.0,358.3284616671883,0.3232256126815493,104.7111715976738
2026-09-29 19:00:20.790812928,-0.05027490234375,-0.28728515624999995,10.198623046875,-0.0010652644360316954,-0.0010652644360316954,0.0,358.32826825239806,0.3228598911065039,104.71162376772656
2026-09-29 19:00:20.822064384,-0.043092773437499995,-0.30883154296875,10.14356005859375,0.0,0.0,0.0,358.3287737235161,0.3229475174758279,104.71176247788809
2026-09-29 19:00:20.822064384,-0.05266894531249999,-0.34234814453124995,10.1938349609375,0.0,-0.0010652644360316954,0.0,358.3289355738364,0.3227057765619385,104.71190981431114
2026-09-29 19:00:20.837689856,-0.05745703125,-0.3064375,10.189046874999999,0.0,-0.0021305288720633907,0.0,358.32865909752695,0.3221172905042598,104.7120653401582
2026-09-29 19:00:20.884563200,-0.07182128906249999,-0.31361962890624995,10.16989453125,0.0,0.0,0.0,358.32856982843765,0.32217927217580244,104.71221298741132
2026-09-29 19:00:20.884563200,-0.0383046875,-0.30883154296875,10.18665283203125,0.0,0.0,0.0,358.32953543478317,0.3220301348767614,104.7123598276242
2026-09-29 19:00:20.884563200,-0.028728515625,-0.32798388671874995,10.1268017578125,-0.0010652644360316954,-0.0021305288720633907,0.0,358.32896485955047,0.3211546900580166,104.71251527140005
2026-09-29 19:00:20.915813888,-0.067033203125,-0.296861328125,10.150742187499999,0.0,-0.0010652644360316954,-0.0010652644360316954,358.3288177841577,0.32045270294529804,104.71175470743783
2026-09-29 19:00:20.915813888,-0.026334472656249996,-0.31840771484374997,10.198623046875,-0.0010652644360316954,-0.0021305288720633907,0.0,358.3282479346579,0.3199281148946742,104.71161416054053
2026-09-29 19:00:20.915813888,-0.05266894531249999,-0.28728515624999995,10.150742187499999,0.0,0.0,0.0,358.32818021645414,0.3201154007866145,104.71174248976298
2026-09-29 19:00:20.915813888,-0.04069873046875,-0.296861328125,10.150742187499999,0.0,-0.0021305288720633907,0.0,358.32792426419326,0.319868581571368,104.71158579826015
2026-09-29 19:00:20.915813888,-0.08857958984374999,-0.30164941406249995,10.196229003906248,0.0,-0.0010652644360316954,-0.0010652644360316954,358.32816368472237,0.31865429541849055,104.7114553689889
2026-09-29 19:00:20.915813888,-0.067033203125,-0.31840771484374997,10.2034111328125,0.0,0.0,0.0,358.3284943583731,0.31863106022672527,104.71160195001336
2026-09-29 19:00:20.915813888,-0.047880859374999994,-0.3208017578125,10.184258789062499,0.0,-0.0010652644360316954,0.0,358.32838861681273,0.3185587289649818,104.71144445605745
2026-09-29 19:00:20.931439616,-0.0335166015625,-0.30164941406249995,10.141166015624998,-0.0010652644360316954,-0.0010652644360316954,0.0,358.32750628685426,0.31843507739737026,104.71128600025628
2026-09-29 19:00:20.947073024,-0.06942724609374999,-0.29925537109375,10.179470703124998,0.0,-0.0010652644360316954,0.0,358.327399554372,0.3175887153431003,104.7108323711842
2026-09-29 19:00:20.962689792,-0.0143642578125,-0.2824970703125,10.205805175781249,0.0,0.0,0.0,358.3265562606196,0.3178988377552024,104.71096144536261
2026-09-29 19:00:21.009847040,-0.076609375,-0.32798388671874995,10.21538134765625,0.0,-0.0010652644360316954,0.0,358.3271020499386,0.31738722643107453,104.71110923677912
2026-09-29 19:00:21.009847040,-0.067033203125,-0.26334472656249996,10.217775390624999,0.0,-0.0010652644360316954,0.0,358.3272783352387,0.3174410628812435,104.71156004683648
2026-09-29 19:00:21.041100544,-0.028728515625,-0.2729208984375,10.21059326171875,0.0,0.0,0.0,358.3279751050357,0.3176312382067507,104.71169980616148
2026-09-29 19:00:21.041100544,0.0047880859375,-0.29207324218749997,10.11483154296875,0.0,0.0,0.0,358.32809184180053,0.3179331717446735,104.71152567375267
2026-09-29 19:00:21.041100544,-0.028728515625,-0.258556640625,10.129195800781249,0.0,-0.0010652644360316954,0.0,358.3283229732538,0.3169926506404118,104.71137726806013
2026-09-29 19:00:21.041100544,-0.01915234375,-0.31361962890624995,10.24889794921875,0.0,0.0,0.0,358.3287247332168,0.3166130263065751,104.71183109296736
2026-09-29 19:00:21.041100544,-0.076609375,-0.29446728515625,10.17707666015625,0.0,0.0,0.0,358.32842055930723,0.317069133733765,104.71195088751581
2026-09-29 19:00:21.041100544,-0.035910644531249994,-0.30404345703124996,10.1651064453125,-0.0021305288720633907,0.0,0.0,358.32758794436194,0.31786333772383885,104.71176609484702
2026-09-29 19:00:21.041100544,-0.035910644531249994,-0.2729208984375,10.155530273437499,-0.0010652644360316954,-0.0010652644360316954,0.0,358.3268360926125,0.31777126324188487,104.7122096242701
2026-09-29 19:00:21.041100544,-0.047880859374999994,-0.30404345703124996,10.14834814453125,0.0,0.0,0.0,358.3270649521448,0.31783185571156997,104.71235012613734
2026-09-29 19:00:21.072352256,-0.055062988281249996,-0.28967919921874996,10.1938349609375,0.0,0.0,0.0,358.3273097357331,0.3175316982301844,104.71249791850659
2026-09-29 19:00:21.088003072,-0.055062988281249996,-0.27770898437499997,10.124407714843748,-0.0010652644360316954,-0.0010652644360316954,0.0,358.3273057590925,0.3173660229136987,104.7126460786352
2026-09-29 19:00:21.119226112,-0.05745703125,-0.31840771484374997,10.1268017578125,0.0,-0.0010652644360316954,0.0,358.3269947215735,0.31724723483572087,104.71248921335697
2026-09-29 19:00:21.150475776,-0.09815576171875,-0.28489111328125,10.18665283203125,-0.0010652644360316954,0.0,0.0,358.3264009719064,0.3174905144689939,104.71292309540449
2026-09-29 19:00:21.166101248,-0.043092773437499995,-0.28728515624999995,10.14834814453125,-0.0010652644360316954,-0.0010652644360316954,0.0,358.3259411544601,0.3170900157617827,104.71368938069715
2026-09-29 19:00:21.166101248,-0.055062988281249996,-0.32319580078125,10.1746826171875,-0.0010652644360316954,-0.0010652644360316954,0.0,358.3257561248184,0.31649026549955855,104.7138453936504
2026-09-29 19:00:21.166101248,-0.05745703125,-0.28967919921874996,10.2321396484375,0.0,0.0,0.0,358.3255690437422,0.316552186357385,104.71398361614528
2026-09-29 19:00:21.166101248,-0.05745703125,-0.3208017578125,10.20819921875,0.0,-0.0010652644360316954,0.0,358.32552314007955,0.3163340905831687,104.71413156959215
2026-09-29 19:00:21.166101248,-0.00718212890625,-0.29446728515625,10.189046874999999,0.0,0.0,0.0,358.32606657682066,0.316088482780151,104.71428828440993
2026-09-29 19:00:21.166101248,-0.055062988281249996,-0.31840771484374997,10.167500488281249,0.0,-0.0010652644360316954,0.0,358.3263675218294,0.3159225573761915,104.71473258166462
2026-09-29 19:00:21.197351168,-0.055062988281249996,-0.2824970703125,10.162712402343749,0.0,-0.0010652644360316954,0.0,358.32649068181485,0.315670361633029,104.7145746451606
2026-09-29 19:00:21.197351168,-0.05266894531249999,-0.33277197265624997,10.150742187499999,0.0,0.0,0.0,358.3266069352877,0.3155839826693528,104.71502845978854
2026-09-29 19:00:21.212976128,-0.067033203125,-0.31840771484374997,10.21059326171875,0.0,0.0,-0.0010652644360316954,358.32662376990555,0.3155778613659735,104.71455606807478
2026-09-29 19:00:21.244471552,-0.00718212890625,-0.27770898437499997,10.18665283203125,0.0,0.0010652644360316954,0.0,358.326803872246,0.31640428817791927,104.71498187003324
2026-09-29 19:00:21.275720960,-0.055062988281249996,-0.26095068359374995,10.201017089843749,0.0,-0.0010652644360316954,0.0,358.3270587879217,0.3162201814536462,104.7148157037049
2026-09-29 19:00:21.275720960,-0.0383046875,-0.28728515624999995,10.19144091796875,0.0,-0.0021305288720633907,0.0,358.32705455421615,0.31613626816903295,104.71496384086284
2026-09-29 19:00:21.275720960,-0.076609375,-0.28967919921874996,10.18665283203125,0.0,0.0,0.0,358.3273343540287,0.3160087564021781,104.7154080440885
2026-09-29 19:00:21.275720960,-0.0813974609375,-0.27531494140624996,10.16989453125,0.0,-0.0021305288720633907,0.0,358.32719996357014,0.3158624291628321,104.71525033766555
2026-09-29 19:00:21.275720960,-0.0622451171875,-0.31601367187499996,10.14356005859375,0.0,0.0,0.0,358.32738296052037,0.31612367020760507,104.71539062249383
2026-09-29 19:00:21.275720960,-0.047880859374999994,-0.2537685546875,10.0980732421875,-0.0010652644360316954,0.0,0.0010652644360316954,358.32749288000065,0.31620992872776077,104.71583382283343
2026-09-29 19:00:21.275720960,-0.035910644531249994,-0.28010302734375,10.234533691406249,0.0,0.0,0.0,358.32737699982124,0.31624685658029916,104.71597413881626
2026-09-29 19:00:21.291347456,-0.0143642578125,-0.28967919921874996,10.1746826171875,0.0,-0.0010652644360316954,0.0,358.32750581876314,0.3159220884046354,104.71612124210868
2026-09-29 19:00:21.291347456,-0.05745703125,-0.30164941406249995,10.16989453125,0.0,-0.0010652644360316954,0.0,358.3282512315642,0.315148983623963,104.71627908926966
2026-09-29 19:00:21.291347456,-0.09336767578124999,-0.30883154296875,10.18186474609375,0.0,0.0,0.0,358.3281433093139,0.31541004577178255,104.71671392199336
2026-09-29 19:00:21.306972672,-0.0047880859375,-0.29925537109375,10.16989453125,0.0,0.0,0.0,358.3288072313999,0.3154284630889325,104.71716739158646
2026-09-29 19:00:21.306972672,-0.0383046875,-0.29446728515625,10.1938349609375,0.0,-0.0010652644360316954,0.0,358.3287845443348,0.3150492988951962,104.71762039824779
2026-09-29 19:00:21.322610688,-0.043092773437499995,-0.31361962890624995,10.167500488281249,-0.0010652644360316954,0.0,0.0,358.32820133068185,0.3149936290697329,104.71775979743936
2026-09-29 19:00:21.369471232,-0.0622451171875,-0.30404345703124996,10.2321396484375,0.0,-0.0021305288720633907,0.0,358.3279565965957,0.3143771737412046,104.71730544934113
2026-09-29 19:00:21.369471232,-0.06942724609374999,-0.31840771484374997,10.141166015624998,0.0,0.0,0.0,358.3284266693125,0.31475510694181663,104.71774016813261
2026-09-29 19:00:21.400721408,-0.043092773437499995,-0.3112255859375,10.172288574218749,0.0,-0.0010652644360316954,0.0,358.3284590487731,0.31473175759277194,104.71757280490054
2026-09-29 19:00:21.400721408,-0.026334472656249996,-0.28010302734375,10.17707666015625,0.0,-0.0010652644360316954,0.0,358.328444155528,0.3140171007201308,104.7177280847314
2026-09-29 19:00:21.400721408,-0.059851074218749994,-0.29446728515625,10.20819921875,0.0,0.0,0.0,358.3280386798773,0.3144293320336669,104.71784895518745
2026-09-29 19:00:21.400721408,-0.08857958984374999,-0.2824970703125,10.167500488281249,0.0,0.0,0.0,358.32772534108676,0.3149766008541123,104.71767416828044
2026-09-29 19:00:21.400721408,-0.07421533203125,-0.30404345703124996,10.1746826171875,0.0,0.0,-0.0010652644360316954,358.32837546951015,0.3149709447296624,104.71721249638378
2026-09-29 19:00:21.400721408,-0.0383046875,-0.296861328125,10.184258789062499,0.0,0.0,0.0,358.3286381288724,0.3160951581084947,104.7173247942036
2026-09-29 19:00:21.400721408,-0.06942724609374999,-0.33277197265624997,10.21059326171875,-0.0010652644360316954,0.0,0.0,358.3279091077329,0.3165541104514566,104.71745445604198
2026-09-29 19:00:21.431972096,0.0047880859375,-0.3064375,10.13158984375,0.0,0.0,0.0,358.32751355157495,0.31658800688455496,104.71759151338198
2026-09-29 19:00:21.447625216,-0.055062988281249996,-0.3064375,10.184258789062499,-0.0021305288720633907,0.0,0.0,358.3271760896559,0.31665576342900725,104.71833183613694
2026-09-29 19:00:21.447625216,-0.04069873046875,-0.26095068359374995,10.160318359375,0.0,-0.0010652644360316954,0.0,358.3269776512677,0.31677851021563824,104.71877501892985
2026-09-29 19:00:21.494470400,-0.0622451171875,-0.3208017578125,10.201017089843749,0.0,0.0,0.0010652644360316954,358.32722356712804,0.3171412712963655,104.71921008954612
2026-09-29 19:00:21.510096384,-0.023940429687499997,-0.31840771484374997,10.227351562499999,-0.0010652644360316954,-0.0010652644360316954,0.0,358.32673131630617,0.3172013064855037,104.71934828962674
2026-09-29 19:00:21.541346304,-0.059851074218749994,-0.28489111328125,10.145954101562499,-0.0010652644360316954,0.0,0.0,358.32619228448095,0.31714570275010007,104.71918117977584
2026-09-29 19:00:21.541346304,-0.06463916015625,-0.3064375,10.14834814453125,-0.0010652644360316954,0.0,0.0,358.32602297389514,0.3175165223286659,104.71900543940704
2026-09-29 19:00:21.541346304,-0.047880859374999994,-0.296861328125,10.184258789062499,0.0,0.0,0.0,358.3258144957767,0.31755113635613536,104.7191523883976
2026-09-29 19:00:21.541346304,-0.043092773437499995,-0.29207324218749997,10.162712402343749,0.0,0.0,0.0010652644360316954,358.3263914700348,0.31745576399927916,104.71990156598704
2026-09-29 19:00:21.541346304,-0.055062988281249996,-0.296861328125,10.20819921875,0.0,-0.0010652644360316954,0.0,358.326678922869,0.31755053240027015,104.71943055104747
2026-09-29 19:00:21.541346304,-0.0143642578125,-0.28728515624999995,10.2417158203125,0.0,-0.0010652644360316954,-0.0010652644360316954,358.32630905087643,0.3173259718480298,104.71896830288367
2026-09-29 19:00:21.556972288,-0.035910644531249994,-0.30404345703124996,10.145954101562499,0.0,-0.0010652644360316954,-0.0010652644360316954,358.3262853536577,0.3168806736022973,104.71820122922702
2026-09-29 19:00:21.556972288,-0.059851074218749994,-0.3112255859375,10.19144091796875,0.0,0.0,0.0,358.32575907242784,0.31723010582517236,104.71772024862805
2026-09-29 19:00:21.588247808,-0.00718212890625,-0.31840771484374997,10.155530273437499,0.0,0.0,0.0,358.32572501228543,0.3174549322405731,104.71754531946848
2026-09-29 19:00:21.588247808,-0.009576171875,-0.26334472656249996,10.205805175781249,0.0,-0.0010652644360316954,0.0,358.3254001741581,0.3169307828477586,104.71708161712307
2026-09-29 19:00:21.636236288,-0.023940429687499997,-0.28728515624999995,10.1363779296875,0.0,-0.0010652644360316954,0.0,358.3254452292456,0.31612455530039796,104.71662886780955
2026-09-29 19:00:21.666941440,-0.08379150390625,-0.2681328125,10.201017089843749,0.0,0.0,0.0,358.3252454636912,0.31608409234205415,104.71676701658275
2026-09-29 19:00:21.666941440,-0.05745703125,-0.2824970703125,10.17707666015625,0.0,-0.0021305288720633907,0.0,358.3256063422081,0.31541260967389767,104.71723836760106
2026-09-29 19:00:21.666941440,-0.05266894531249999,-0.30164941406249995,10.22016943359375,0.0,0.0,0.0,358.3263365349072,0.3150035594125296,104.71708204240093
2026-09-29 19:00:21.666941440,-0.06463916015625,-0.29925537109375,10.16989453125,0.0,-0.0010652644360316954,0.0,358.3263407180182,0.3150137576601594,104.71723014941789
2026-09-29 19:00:21.666941440,-0.06942724609374999,-0.27531494140624996,10.172288574218749,-0.0010652644360316954,0.0,0.0,358.32662720394626,0.31545385749205446,104.71705534037436
2026-09-29 19:00:21.666941440,-0.06463916015625,-0.33037792968749996,10.172288574218749,0.0,0.0,0.0,358.3264264716805,0.3156142668618567,104.71688835641721
2026-09-29 19:00:21.666941440,-0.09336767578124999,-0.30883154296875,10.2034111328125,0.0,0.0,0.0,358.32604609177616,0.3163894956629289,104.71639762796512
2026-09-29 19:00:21.666941440,-0.03112255859375,-0.296861328125,10.150742187499999,0.0,-0.0010652644360316954,0.0,358.32614627856316,0.31609930435232025,104.71594341524958
2026-09-29 19:00:21.666941440,-0.09815576171875,-0.30883154296875,10.2321396484375,-0.0010652644360316954,-0.0010652644360316954,0.0,358.32533830336695,0.3154725708297135,104.71609937169639
2026-09-29 19:00:21.666941440,-0.028728515625,-0.33995410156249994,10.160318359375,-0.0010652644360316954,-0.0010652644360316954,0.0,358.32449283411245,0.3156982185308088,104.71593211014434
2026-09-29 19:00:21.682567424,-0.011970214843749999,-0.30164941406249995,10.138771972656249,-0.0010652644360316954,-0.0010652644360316954,0.0,358.32348924000166,0.3152672254482633,104.71638317257866
2026-09-29 19:00:21.698218496,-0.07900341796874999,-0.2729208984375,10.1651064453125,0.0,-0.0010652644360316954,0.0,358.32413035872366,0.3145005817150377,104.71623531398059
2026-09-29 19:00:21.713824512,-0.067033203125,-0.2729208984375,10.189046874999999,0.0,-0.0010652644360316954,0.0,358.32424010849854,0.31443849123138806,104.7169941670983
2026-09-29 19:00:21.745065984,-0.035910644531249994,-0.30404345703124996,10.138771972656249,0.0,0.0,0.0,358.3246580943697,0.31425542607502366,104.71683619252414
2026-09-29 19:00:21.776316160,-0.05266894531249999,-0.3112255859375,10.160318359375,0.0,0.0,0.0,358.3248366828957,0.3143893673385852,104.71697475887073
2026-09-29 19:00:21.776316160,-0.021546386718749998,-0.28728515624999995,10.184258789062499,-0.0010652644360316954,-0.0010652644360316954,0.0,358.32433646135206,0.31459137317566516,104.71679893885107
2026-09-29 19:00:21.776316160,-0.06942724609374999,-0.29207324218749997,10.129195800781249,0.0,0.0,-0.0010652644360316954,358.32492956222757,0.31426219578565656,104.71664197756792
2026-09-29 19:00:21.791942656,-0.05266894531249999,-0.31601367187499996,10.217775390624999,0.0010652644360316954,0.0,0.0,358.3257042311786,0.3144399777730952,104.71647526054475
2026-09-29 19:00:21.791942656,-0.0383046875,-0.27531494140624996,10.160318359375,0.0,0.0,0.0,358.32608953969907,0.3150358715701098,104.71659548020725
2026-09-29 19:00:21.791942656,-0.07182128906249999,-0.3112255859375,10.179470703124998,0.0,0.0,0.0,358.3261793117139,0.3149855023783431,104.71643015482583
2026-09-29 19:00:21.791942656,-0.05745703125,-0.32319580078125,10.19144091796875,0.0,0.0,0.0010652644360316954,358.3263981976915,0.3152872296037681,104.71655998078094
2026-09-29 19:00:21.791942656,-0.08379150390625,-0.30883154296875,10.1746826171875,0.0,0.0,0.0,358.3268417685672,0.31538792171664887,104.71700335298273
2026-09-29 19:00:21.807567104,-0.03112255859375,-0.27052685546875,10.1746826171875,0.0,-0.0010652644360316954,0.0,358.32694844635984,0.31517666110763476,104.71684525956518
2026-09-29 19:00:21.823217664,-0.07182128906249999,-0.29446728515625,10.167500488281249,0.0010652644360316954,0.0010652644360316954,0.0,358.32757936312237,0.31571002837658413,104.7166616712823
2026-09-29 19:00:21.823217664,-0.04548681640625,-0.30164941406249995,10.205805175781249,0.0,-0.0010652644360316954,0.0,358.3276526418447,0.3159666452397249,104.71619121668579
2026-09-29 19:00:21.870066944,-0.07182128906249999,-0.28967919921874996,10.201017089843749,0.0,0.0,0.0,358.3276004022773,0.3162711354341483,104.71601613880179
2026-09-29 19:00:21.901320448,-0.0383046875,-0.33037792968749996,10.184258789062499,0.0,-0.0021305288720633907,0.0,358.32749714708746,0.3158940699970075,104.71617262755912
2026-09-29 19:00:21.901320448,-0.01675830078125,-0.3064375,10.124407714843748,0.0,0.0,-0.0010652644360316954,358.32767124861783,0.31554281970986836,104.71570833326302
2026-09-29 19:00:21.901320448,-0.09576171874999999,-0.29207324218749997,10.227351562499999,0.0,0.0,0.0,358.32817044136135,0.31537759533426346,104.71615196167139
2026-09-29 19:00:21.901320448,-0.07900341796874999,-0.28728515624999995,10.138771972656249,0.0,0.0,0.0,358.32832865246854,0.31546826362058006,104.7159941903771
2026-09-29 19:00:21.901320448,-0.06942724609374999,-0.28728515624999995,10.1363779296875,0.0,-0.0010652644360316954,0.0,358.3284166511379,0.3154545715866322,104.71613395005518
2026-09-29 19:00:21.901320448,-0.009576171875,-0.3064375,10.1651064453125,0.0,-0.0010652644360316954,0.0,358.3287224073823,0.31547035661193024,104.71596810120215
2026-09-29 19:00:21.916946944,-0.0622451171875,-0.27052685546875,10.212987304687498,0.0,0.0,0.0010652644360316954,358.32904323753706,0.3152336290099633,104.71671576131557
2026-09-29 19:00:21.916946944,-0.05027490234375,-0.3064375,10.15313623046875,0.0,-0.0021305288720633907,0.0,358.32959232776034,0.3154313041810166,104.71655125913486
2026-09-29 19:00:21.948192256,-0.047880859374999994,-0.28728515624999995,10.162712402343749,-0.0010652644360316954,-0.0010652644360316954,0.0,358.3294068151621,0.3151516262534837,104.71669836957132
2026-09-29 19:00:21.979441664,-0.011970214843749999,-0.3112255859375,10.19144091796875,0.0,0.0,-0.0010652644360316954,358.3293241302166,0.3151438544836339,104.71622711910852
2026-09-29 19:00:21.979441664,-0.059851074218749994,-0.3112255859375,10.227351562499999,0.0,-0.0010652644360316954,0.0,358.3294890063488,0.31484854089073105,104.71636562740194
2026-09-29 19:00:22.010690304,-0.043092773437499995,-0.32319580078125,10.145954101562499,0.0,0.0,0.0010652644360316954,358.3292754911375,0.31482100301114513,104.71741874194656
2026-09-29 19:00:22.026315520,-0.0813974609375,-0.32798388671874995,10.155530273437499,0.0,0.0,0.0,358.3290761204464,0.31536425500498183,104.71754797512344
2026-09-29 19:00:22.026315520,-0.07421533203125,-0.27531494140624996,10.16989453125,-0.0010652644360316954,-0.0021305288720633907,0.0,358.32865981768276,0.31508674042754814,104.71739769328266
2026-09-29 19:00:22.026315520,-0.067033203125,-0.28967919921874996,10.2034111328125,0.0,-0.0010652644360316954,0.0,358.32858118856535,0.31552308659299316,104.71752756169957
2026-09-29 19:00:22.026315520,-0.07900341796874999,-0.3064375,10.16989453125,0.0,0.0,0.0,358.3288730358996,0.31566484867194106,104.71766673792104
2026-09-29 19:00:22.026315520,-0.04548681640625,-0.3112255859375,10.2417158203125,0.0,-0.0010652644360316954,0.0,358.3287963477587,0.3151019369933214,104.71812844491997
2026-09-29 19:00:22.026315520,-0.05745703125,-0.3112255859375,10.212987304687498,0.0,0.0,0.0,358.3290065284647,0.3152961159855617,104.71825835185857
2026-09-29 19:00:22.026315520,-0.07421533203125,-0.28728515624999995,10.1938349609375,0.0,-0.0010652644360316954,-0.0010652644360316954,358.32911787614717,0.3149218037153939,104.7174903071789
2026-09-29 19:00:22.026315520,-0.059851074218749994,-0.30404345703124996,10.189046874999999,0.0,0.0,0.0,358.3289125183107,0.3149759644719526,104.71762840146455
2026-09-29 19:00:22.041942784,-0.026334472656249996,-0.29925537109375,10.24889794921875,0.0,0.0,-0.0010652644360316954,358.32902676359123,0.3154234842836571,104.71684265042532
2026-09-29 19:00:22.073193216,-0.043092773437499995,-0.31361962890624995,10.162712402343749,0.0,0.0,0.0,358.3285446967819,0.3157060088769917,104.71727707103359
2026-09-29 19:00:22.073193216,-0.04069873046875,-0.2824970703125,10.1651064453125,0.0,-0.0010652644360316954,0.0,358.3280297358177,0.31553319968835614,104.71711896807756
2026-09-29 19:00:22.104440320,-0.05745703125,-0.30883154296875,10.1268017578125,0.0,-0.0010652644360316954,0.0,358.3279671047148,0.31565455127141523,104.71695273091277
2026-09-29 19:00:22.104440320,-0.05745703125,-0.2824970703125,10.217775390624999,0.0,0.0,0.0,358.3279708786897,0.31561264908675524,104.7170992091827
2026-09-29 19:00:22.135689984,-0.026334472656249996,-0.28489111328125,10.21538134765625,-0.0010652644360316954,-0.0021305288720633907,0.0,358.32745036567235,0.3150392892282436,104.71725669820563
2026-09-29 19:00:22.135689984,-0.0335166015625,-0.32558984375,10.196229003906248,0.0,-0.0010652644360316954,0.0,358.3267979567636,0.31441517611541026,104.71740466486334
2026-09-29 19:00:22.135689984,-0.035910644531249994,-0.34234814453124995,10.201017089843749,0.0,0.0,0.0,358.32695899231607,0.31434393207440064,104.7178481829966
2026-09-29 19:00:22.135689984,-0.03112255859375,-0.28967919921874996,10.236927734375,0.0,-0.0010652644360316954,0.0,358.3265944678615,0.31416042740859446,104.71768923478336
2026-09-29 19:00:22.135689984,-0.01675830078125,-0.28489111328125,10.10525537109375,0.0,-0.0010652644360316954,0.0,358.3269192296193,0.3138317476709494,104.71753240917091
2026-09-29 19:00:22.135689984,-0.0813974609375,-0.29446728515625,10.145954101562499,0.0,-0.0010652644360316954,0.0,358.3273633001066,0.3136501245657061,104.71767067517503
2026-09-29 19:00:22.166977792,-0.047880859374999994,-0.27052685546875,10.1746826171875,0.0,-0.0010652644360316954,0.0,358.3269867302198,0.3132761007649711,104.71813235407522
2026-09-29 19:00:22.182970112,-0.055062988281249996,-0.29925537109375,10.133983886718749,0.0,-0.0010652644360316954,0.0,358.3270870094081,0.31314967936867427,104.7179743617331
