Timestamp,ax,ay,az,gx,gy,gz,roll,pitch,yaw
2026-09-28 19:35:30.152268288,0.07421533203125,-0.16518896484374998,10.201017089843749,0.0010652644360316954,0.0,0.0010652644360316954,359.10563104475017,359.61635110427096,5.09815498568604
2026-09-28 19:35:30.158183424,0.1005498046875,-0.17715917968749997,10.196229003906248,0.0,0.0,0.0,359.1060271020704,359.61556111756755,5.098018785439539
2026-09-28 19:35:30.158183424,0.076609375,-0.17715917968749997,10.189046874999999,0.0,0.0010652644360316954,0.0,359.106071271794,359.61562631587753,5.097260461043358
2026-09-28 19:35:30.158183424,0.0909736328125,-0.14364257812499998,10.1938349609375,0.0010652644360316954,0.0,0.0010652644360316954,359.1062653832971,359.6157567936037,5.097416493044184
2026-09-28 19:35:30.158183424,0.055062988281249996,-0.1675830078125,10.234533691406249,0.0,0.0,0.0010652644360316954,359.10666441384166,359.6155908775823,5.098186268207376
2026-09-28 19:35:30.158183424,0.08379150390625,-0.162794921875,10.184258789062499,0.0,0.0,0.0,359.1059925923556,359.6158770590674,5.098647135600454
2026-09-28 19:35:30.166192384,0.043092773437499995,-0.15082470703124998,10.18665283203125,0.0,0.0,0.0,359.10541821952023,359.6155439248519,5.098806816008629
2026-09-28 19:35:30.166192384,0.07421533203125,-0.14603662109374999,10.145954101562499,0.0,0.0,0.0,359.10519162418615,359.615595398282,5.098966315891559
2026-09-28 19:35:30.166192384,0.09815576171875,-0.14603662109374999,10.217775390624999,0.0010652644360316954,0.0010652644360316954,-0.0010652644360316954,359.1055774080024,359.6156452662225,5.09820566863584
2026-09-28 19:35:30.174191104,0.07421533203125,-0.162794921875,10.196229003906248,0.0,0.0,0.0,359.1058333647171,359.61574962072694,5.097443790518481
2026-09-28 19:35:30.174191104,0.06942724609374999,-0.181947265625,10.229745605468748,0.0,0.0010652644360316954,0.0,359.10545742738594,359.61682153226064,5.097585146025036
2026-09-28 19:35:30.174191104,0.0909736328125,-0.17237109374999998,10.198623046875,0.0,0.0,0.0,359.1051277551955,359.61705767653706,5.097740671847208
2026-09-28 19:35:30.182192384,0.09336767578124999,-0.14364257812499998,10.198623046875,0.0,-0.0010652644360316954,0.0010652644360316954,359.1055265755493,359.6164638593829,5.098209923952044
2026-09-28 19:35:30.182192384,0.06942724609374999,-0.18673535156249998,10.289596679687499,0.0,0.0,0.0010652644360316954,359.1051153439451,359.6166137638678,5.098668981008877
2026-09-28 19:35:30.182192384,0.05745703125,-0.18673535156249998,10.201017089843749,0.0,-0.0021305288720633907,0.0,359.1040633284526,359.6158796735436,5.098534280068984
2026-09-28 19:35:30.182192384,0.07900341796874999,-0.15800683593749998,10.229745605468748,0.0,-0.0010652644360316954,0.0,359.1038816154964,359.61518900232653,5.098704978831661
2026-09-28 19:35:30.182192384,0.055062988281249996,-0.16997705078124997,10.236927734375,0.0,0.0,0.0,359.1047117011592,359.6155310817272,5.0985488635130345
2026-09-28 19:35:30.190189568,0.10294384765624999,-0.15561279296875,10.205805175781249,0.0,0.0,0.0,359.1047000836655,359.6160741740965,5.09869938414127
2026-09-28 19:35:30.206188800,0.09815576171875,-0.17476513671875,10.24889794921875,0.0,0.0,0.0010652644360316954,359.10444679280255,359.6159184892342,5.099162108674721
2026-09-28 19:35:30.222188544,0.07182128906249999,-0.14364257812499998,10.21059326171875,0.0,0.0,0.0,359.10426382858793,359.61609041316837,5.0993165367028
2026-09-28 19:35:30.246188032,0.0909736328125,-0.17237109374999998,10.189046874999999,-0.0010652644360316954,-0.0010652644360316954,0.0,359.1030068903102,359.6156254254661,5.09948150905786
2026-09-28 19:35:30.262188800,0.05027490234375,-0.19152343749999998,10.239321777343749,0.0010652644360316954,0.0,0.0,359.10287639284456,359.61535321836504,5.099337271363576
2026-09-28 19:35:30.270187008,0.08618554687499999,-0.162794921875,10.145954101562499,0.0,0.0,0.0,359.10301874558223,359.61565992437227,5.099493581394257
2026-09-28 19:35:30.270187008,0.0813974609375,-0.17237109374999998,10.20819921875,0.0,0.0,0.0,359.10322993156603,359.6150738363233,5.099658894814702
2026-09-28 19:35:30.278187776,0.059851074218749994,-0.18673535156249998,10.201017089843749,0.0,-0.0010652644360316954,0.0,359.103134469303,359.6148142696058,5.099207286285399
2026-09-28 19:35:30.286187008,0.0813974609375,-0.17237109374999998,10.184258789062499,0.0,0.0010652644360316954,0.0,359.103060829012,359.6151819405781,5.099053141258527
2026-09-28 19:35:30.294186752,0.07182128906249999,-0.16997705078124997,10.205805175781249,0.0010652644360316954,0.0,0.0,359.1033357721025,359.61511864965115,5.099513710889619
2026-09-28 19:35:30.294186752,0.06463916015625,-0.181947265625,10.162712402343749,0.0,0.0,0.0,359.1033522675793,359.6148404189472,5.099673550198134
2026-09-28 19:35:30.294186752,0.076609375,-0.15321875,10.160318359375,0.0,0.0010652644360316954,0.0,359.1028494624628,359.615351441355,5.099520172684441
2026-09-28 19:35:30.294186752,0.076609375,-0.13406640625,10.2034111328125,0.0,0.0,0.0,359.103070884964,359.6156510314761,5.10027941714722
2026-09-28 19:35:30.302186752,0.10294384765624999,-0.16040087890625,10.160318359375,0.0021305288720633907,0.0,0.0,359.1039572679653,359.6162233562463,5.10073319085421
2026-09-28 19:35:30.302186752,0.10773193359375,-0.16518896484374998,10.18186474609375,0.0,-0.0010652644360316954,0.0,359.10410020375014,359.6154368298624,5.100903876722264
2026-09-28 19:35:30.310187008,0.0622451171875,-0.181947265625,10.150742187499999,0.0010652644360316954,0.0,0.0,359.1048801276437,359.6152153984629,5.101367895737463
2026-09-28 19:35:30.310187008,0.047880859374999994,-0.1675830078125,10.17707666015625,0.0,0.0,0.0,359.10534443328,359.6154275184447,5.101522063498481
2026-09-28 19:35:30.310187008,0.09815576171875,-0.15082470703124998,10.16989453125,0.0010652644360316954,0.0,0.0,359.10563278584567,359.6157834771274,5.101677449153582
2026-09-28 19:35:30.310187008,0.06463916015625,-0.1484306640625,10.141166015624998,0.0,-0.0010652644360316954,0.0010652644360316954,359.1054114688111,359.6151091429467,5.102146745032481
2026-09-28 19:35:30.318186240,0.08857958984374999,-0.14603662109374999,10.1746826171875,0.0,0.0,0.0,359.10458540445376,359.61566662020533,5.101686421754245
2026-09-28 19:35:30.326187008,0.076609375,-0.18673535156249998,10.19144091796875,0.0,0.0,0.0,359.10441110183916,359.61547337978686,5.101540430727149
2026-09-28 19:35:30.326187008,0.076609375,-0.1484306640625,10.21059326171875,0.0,0.0,0.0,359.1046665776686,359.61546290060306,5.101085746376353
2026-09-28 19:35:30.326187008,0.05027490234375,-0.16040087890625,10.179470703124998,0.0,0.0,0.0,359.10474868986745,359.6158607280689,5.101240388050343
2026-09-28 19:35:30.334185984,0.08857958984374999,-0.13167236328124998,10.107649414062498,0.0,0.0,0.0,359.1044899256964,359.6158372799209,5.100789954049086
2026-09-28 19:35:30.334185984,0.0622451171875,-0.16518896484374998,10.196229003906248,0.0,0.0,0.0010652644360316954,359.1048781864696,359.61560668502176,5.100947398613487
2026-09-28 19:35:30.342185216,0.09576171874999999,-0.16040087890625,10.157924316406248,0.0,0.0,0.0,359.1046322087549,359.6152256720811,5.100501580944657
2026-09-28 19:35:30.342185216,0.0909736328125,-0.15321875,10.160318359375,0.0,0.0,0.0,359.1049415857854,359.6146385289002,5.100361207425357
2026-09-28 19:35:30.350185984,0.07900341796874999,-0.17476513671875,10.227351562499999,0.0,0.0,0.0,359.10471700652926,359.6150187194611,5.100210839817161
2026-09-28 19:35:30.358185728,0.059851074218749994,-0.16518896484374998,10.179470703124998,0.0,0.0,0.0,359.1049208457045,359.61494306432786,5.099761246438567
2026-09-28 19:35:30.366185728,0.059851074218749994,-0.15561279296875,10.16989453125,0.0,0.0,0.0,359.10498921524936,359.6143155105898,5.099625184333407
2026-09-28 19:35:30.366185728,0.10533789062499999,-0.201099609375,10.145954101562499,0.0,0.0,0.0010652644360316954,359.1050354663389,359.6139939786094,5.1003999638598785
2026-09-28 19:35:30.366185728,0.1005498046875,-0.15800683593749998,10.17707666015625,0.0,0.0,0.0,359.10440561445944,359.61376835862495,5.100562211433947
2026-09-28 19:35:30.374186752,0.07900341796874999,-0.15561279296875,10.234533691406249,0.0,0.0,0.0,359.1051477094689,359.61361204835276,5.100716560458178
2026-09-28 19:35:30.374186752,0.07182128906249999,-0.18673535156249998,10.244109863281249,0.0,0.0010652644360316954,0.0,359.1054690791219,359.61411501193714,5.100561909675447
2026-09-28 19:35:30.374186752,0.043092773437499995,-0.17237109374999998,10.2321396484375,0.0,0.0,0.0,359.10585929657526,359.6143391207755,5.100413596492937
2026-09-28 19:35:30.382185984,0.09815576171875,-0.1484306640625,10.184258789062499,0.0010652644360316954,0.0,0.0010652644360316954,359.1060530821919,359.6143101509503,5.101189453673045
2026-09-28 19:35:30.382185984,0.05266894531249999,-0.18912939453125,10.227351562499999,0.0,-0.0010652644360316954,0.0010652644360316954,359.10622907192436,359.61349067363574,5.10227313476089
2026-09-28 19:35:30.382185984,0.0909736328125,-0.162794921875,10.16989453125,0.0,0.0,0.0,359.10647178564506,359.61352307722115,5.102433505311879
2026-09-28 19:35:30.382185984,0.07421533203125,-0.17715917968749997,10.201017089843749,0.0,0.0,0.0,359.10613190060997,359.6132252310903,5.1028989659506445
2026-09-28 19:35:30.382185984,0.055062988281249996,-0.17476513671875,10.19144091796875,0.0,0.0010652644360316954,0.0,359.1060944765867,359.614073817064,5.102739912754075
2026-09-28 19:35:30.382185984,0.03112255859375,-0.17955322265624998,10.20819921875,0.0,0.0021305288720633907,0.0,359.1056156215778,359.61478623580285,5.102586459728912
2026-09-28 19:35:30.382185984,0.043092773437499995,-0.15321875,10.22495751953125,0.0,0.0,0.0,359.10555438058674,359.6148440631031,5.102136679333747
2026-09-28 19:35:30.390185728,0.1149140625,-0.15561279296875,10.10525537109375,-0.0010652644360316954,0.0,0.0010652644360316954,359.10485816906544,359.6152059124586,5.102595648535647
2026-09-28 19:35:30.390185728,0.06463916015625,-0.1963115234375,10.18186474609375,0.0010652644360316954,0.0,0.0,359.10527046573094,359.6147565180164,5.10306006425266
2026-09-28 19:35:30.390185728,0.09336767578124999,-0.17715917968749997,10.21059326171875,0.0,0.0,0.0010652644360316954,359.10533493776074,359.61504050208123,5.103522068170932
2026-09-28 19:35:30.398185472,0.059851074218749994,-0.17715917968749997,10.184258789062499,0.0,0.0,0.0,359.10548014016933,359.6148554704448,5.10368314237033
2026-09-28 19:35:30.398185472,0.05027490234375,-0.1484306640625,10.198623046875,0.0,0.0,0.0,359.1053300862551,359.6143829873728,5.104153989419484
2026-09-28 19:35:30.398185472,0.055062988281249996,-0.162794921875,10.244109863281249,0.0,0.0,0.0,359.10540939173825,359.6146951373972,5.104613790081421
2026-09-28 19:35:30.398185472,0.08379150390625,-0.13167236328124998,10.198623046875,0.0,0.0,0.0,359.1048267694917,359.61489566794796,5.104768728032341
2026-09-28 19:35:30.406185216,0.059851074218749994,-0.16040087890625,10.21059326171875,0.0,0.0,0.0,359.1048388264618,359.61506233282,5.104616723843692
2026-09-28 19:35:30.406185216,0.059851074218749994,-0.12209619140624998,10.1363779296875,0.0,0.0,0.0,359.1044716362249,359.6146945322722,5.104171787764038
2026-09-28 19:35:30.406185216,0.09336767578124999,-0.124490234375,10.21059326171875,0.0,0.0,0.0010652644360316954,359.105128998662,359.6146532106212,5.104329498249627
2026-09-28 19:35:30.414185984,0.11252001953124999,-0.1484306640625,10.19144091796875,0.0,0.0,0.0010652644360316954,359.1057217821824,359.61461121218707,5.105097886535678
2026-09-28 19:35:30.422188032,0.10773193359375,-0.1675830078125,10.217775390624999,0.0,0.0,0.0,359.106302251185,359.6149778282099,5.1049414388625385
2026-09-28 19:35:30.430185984,0.0622451171875,-0.1675830078125,10.19144091796875,0.0,0.0,0.0,359.1059734374245,359.61556091600033,5.104171932346396
2026-09-28 19:35:30.430185984,0.05266894531249999,-0.17955322265624998,10.189046874999999,0.0,0.0010652644360316954,0.0,359.1060947514644,359.61560387386766,5.103720847270331
2026-09-28 19:35:30.430185984,0.076609375,-0.15800683593749998,10.2321396484375,-0.0010652644360316954,0.0,0.0,359.1055071403707,359.61612680439805,5.103566094358686
2026-09-28 19:35:30.430185984,0.04548681640625,-0.17476513671875,10.201017089843749,0.0,0.0,0.0,359.10515445179556,359.6161412478249,5.103721656211221
2026-09-28 19:35:30.438186496,0.07421533203125,-0.16040087890625,10.155530273437499,0.0,0.0,0.0,359.1042002194785,359.6164519255708,5.103571969298247
2026-09-28 19:35:30.442888704,0.047880859374999994,-0.15321875,10.227351562499999,0.0,0.0,0.0,359.1040276593045,359.61662238239336,5.103120956590484
2026-09-28 19:35:30.442888704,0.06463916015625,-0.1675830078125,10.179470703124998,0.0,0.0010652644360316954,0.0,359.1039360133539,359.61722332488597,5.102966833337992
2026-09-28 19:35:30.442888704,0.05266894531249999,-0.19391748046875,10.25847412109375,0.0,0.0,0.0,359.1037242144535,359.61773516163873,5.103116734228149
2026-09-28 19:35:30.442888704,0.05027490234375,-0.18673535156249998,10.22495751953125,0.0,0.0,0.0,359.1034520074508,359.6187390506273,5.103262181289915
2026-09-28 19:35:30.442888704,0.05266894531249999,-0.15082470703124998,10.198623046875,0.0,0.0010652644360316954,0.0,359.103406742041,359.61965624621104,5.103103012609917
2026-09-28 19:35:30.446395392,0.06942724609374999,-0.1675830078125,10.24889794921875,0.0,0.0010652644360316954,0.0,359.10367538055806,359.62054898300994,5.103248857738689
2026-09-28 19:35:30.447863552,0.059851074218749994,-0.17237109374999998,10.198623046875,0.0,0.0010652644360316954,0.0,359.1029002001965,359.62193841716373,5.1036891982981585
2026-09-28 19:35:30.447863552,0.067033203125,-0.17955322265624998,10.22016943359375,0.0,0.0,0.0,359.10272517223257,359.6222478373791,5.103235365758079
2026-09-28 19:35:30.448420864,0.0622451171875,-0.1484306640625,10.14356005859375,0.0,0.0,0.0,359.1023786141882,359.622660705414,5.103390802145401
2026-09-28 19:35:30.448420864,0.09815576171875,-0.162794921875,10.217775390624999,0.0,0.0010652644360316954,0.0010652644360316954,359.10244354431666,359.6236959392838,5.103841147772156
2026-09-28 19:35:30.448420864,0.0813974609375,-0.19391748046875,10.155530273437499,0.0,0.0010652644360316954,0.0010652644360316954,359.1023815931788,359.62442743133425,5.1042903138632685
2026-09-28 19:35:30.457724416,0.05745703125,-0.20588769531249998,10.2034111328125,0.0,0.0,0.0,359.10161900198517,359.6245368557474,5.104141467450099
2026-09-28 19:35:30.457724416,0.06942724609374999,-0.15800683593749998,10.256080078124999,0.0,0.0,0.0,359.10042022259074,359.62527994505535,5.104596897389232
2026-09-28 19:35:30.465990912,0.09815576171875,-0.17237109374999998,10.22016943359375,-0.0010652644360316954,0.0,0.0,359.0995059273816,359.62602560396886,5.104437409943312
2026-09-28 19:35:30.483155200,0.05027490234375,-0.16040087890625,10.133983886718749,0.0,0.0,0.0,359.09875950219595,359.62642825694616,5.1045866589284845
2026-09-28 19:35:30.498528512,0.07182128906249999,-0.15800683593749998,10.26565625,0.0,0.0010652644360316954,0.0,359.0985620646218,359.62760270043157,5.104421563634194
2026-09-28 19:35:30.514071040,0.059851074218749994,-0.15082470703124998,10.284808593749998,0.0,0.0,0.0,359.0982687845066,359.6280158147696,5.104264832351696
2026-09-28 19:35:30.514071040,0.047880859374999994,-0.17476513671875,10.15313623046875,0.0,0.0010652644360316954,0.0021305288720633907,359.0978103387139,359.629435973706,5.1050148776373465
2026-09-28 19:35:30.522242560,0.0813974609375,-0.15321875,10.066950683593749,0.0,0.0,0.0,359.09666918153175,359.6308726542295,5.105155080213775
2026-09-28 19:35:30.522242560,0.06463916015625,-0.17715917968749997,10.1651064453125,0.0,-0.0010652644360316954,0.0010652644360316954,359.0967887236806,359.63025146869165,5.105324049859693
2026-09-28 19:35:30.537900288,0.035910644531249994,-0.13406640625,10.28241455078125,0.0,0.0,0.0,359.09726345995676,359.6294640241199,5.1051874376100885
2026-09-28 19:35:30.569117696,0.08618554687499999,-0.15800683593749998,10.155530273437499,-0.0010652644360316954,0.0,0.0,359.096310811258,359.6294700654183,5.104735380301624
2026-09-28 19:35:30.569117696,0.0622451171875,-0.162794921875,10.150742187499999,0.0,-0.0010652644360316954,0.0,359.0958354111592,359.62852093257465,5.104906024999912
2026-09-28 19:35:30.569117696,0.055062988281249996,-0.16518896484374998,10.229745605468748,0.0010652644360316954,0.0,0.0,359.0969088693125,359.6281872114978,5.105069902615008
2026-09-28 19:35:30.584748032,0.0813974609375,-0.13167236328124998,10.260868164062499,0.0,0.0,0.0,359.0964473546461,359.62844739334594,5.104613942644031
2026-09-28 19:35:30.601665024,0.10533789062499999,-0.16518896484374998,10.1651064453125,0.0,0.0,0.0,359.0962389119299,359.6290104764783,5.105066874998809
2026-09-28 19:35:30.609222400,0.07900341796874999,-0.13646044921875,10.0980732421875,0.0,0.0,0.0,359.0956791118092,359.6289414301303,5.105221673903699
2026-09-28 19:35:30.616436480,0.067033203125,-0.17237109374999998,10.251291992187499,0.0,0.0,0.0,359.0952502276641,359.629017071029,5.105375586894926
2026-09-28 19:35:30.632092928,0.08618554687499999,-0.16518896484374998,10.256080078124999,0.0,0.0,0.0,359.09477570552866,359.62921397267297,5.105226676337292
2026-09-28 19:35:30.632092928,0.10773193359375,-0.15561279296875,10.155530273437499,0.0010652644360316954,0.0,0.0,359.0947387514085,359.6293171242043,5.10507705845418
2026-09-28 19:35:30.650861824,0.07182128906249999,-0.13406640625,10.227351562499999,0.0,0.0,0.0,359.0950569414985,359.62850512278817,5.105241730197749
2026-09-28 19:35:30.651782144,0.059851074218749994,-0.14364257812499998,10.21538134765625,0.0,0.0,0.0010652644360316954,359.0954130419619,359.6282554867317,5.1054043081646405
2026-09-28 19:35:30.664599808,0.07182128906249999,-0.16997705078124997,10.198623046875,0.0,0.0,0.0010652644360316954,359.0951954829304,359.6288729476624,5.105859288230103
2026-09-28 19:35:30.695378944,0.11730810546874999,-0.15082470703124998,10.13158984375,-0.0010652644360316954,0.0,0.0010652644360316954,359.09416077375874,359.6286506621175,5.106323208863599
2026-09-28 19:35:30.711003392,0.055062988281249996,-0.16040087890625,10.157924316406248,0.0,0.0,0.0,359.09436753480395,359.62842014830323,5.106481895625891
2026-09-28 19:35:30.711003392,0.076609375,-0.14603662109374999,10.25847412109375,0.0,0.0,0.0,359.09423072276724,359.62837028888293,5.10603057086957
2026-09-28 19:35:30.726629120,0.059851074218749994,-0.16997705078124997,10.1651064453125,0.0,0.0,0.0,359.09448341109015,359.62798905377446,5.106193725084817
2026-09-28 19:35:30.742253568,0.08618554687499999,-0.18912939453125,10.179470703124998,-0.0010652644360316954,0.0,0.0,359.0931904444971,359.6285067942118,5.1063445191341446
2026-09-28 19:35:30.789315584,0.05745703125,-0.15800683593749998,10.189046874999999,0.0,0.0,0.0010652644360316954,359.0930656634863,359.62815402884223,5.1068103914856104
2026-09-28 19:35:30.820563712,0.06463916015625,-0.12688427734375,10.256080078124999,0.0,0.0,0.0,359.09347236169253,359.62857263595856,5.106659729812205
2026-09-28 19:35:30.836187648,0.11252001953124999,-0.16997705078124997,10.196229003906248,0.0,-0.0010652644360316954,0.0,359.09336899092034,359.6281192237504,5.106518144264798
2026-09-28 19:35:30.851812096,0.059851074218749994,-0.181947265625,10.1651064453125,0.0,0.0,0.0,359.0931556534421,359.62801793226544,5.106062488319293
2026-09-28 19:35:30.883062272,0.04069873046875,-0.15561279296875,10.167500488281249,0.0,-0.0010652644360316954,0.0,359.09316250628837,359.627375155787,5.105926944611093
2026-09-28 19:35:30.883062272,0.06942724609374999,-0.1675830078125,10.20819921875,0.0,0.0,0.0,359.0933172964687,359.62740556320915,5.105475741315675
2026-09-28 19:35:30.883062272,0.07900341796874999,-0.17237109374999998,10.179470703124998,0.0,0.0,0.0,359.09314684926784,359.6271267823852,5.10532967902661
2026-09-28 19:35:30.898688768,0.03112255859375,-0.15561279296875,10.222563476562499,0.0010652644360316954,0.0010652644360316954,0.0010652644360316954,359.0938647093127,359.62751689388296,5.105784392861702
2026-09-28 19:35:30.898688768,0.0622451171875,-0.18434130859374998,10.184258789062499,0.0010652644360316954,0.0,0.0,359.09432021116385,359.62780888637633,5.105938510871869
2026-09-28 19:35:30.914710784,0.08379150390625,-0.17715917968749997,10.196229003906248,0.0,0.0,0.0,359.09424989481107,359.6277183977921,5.106098887606481
2026-09-28 19:35:30.914710784,0.028728515625,-0.14124853515625,10.18186474609375,0.0,0.0,0.0,359.09361146864944,359.62780925023276,5.105949179296441
2026-09-28 19:35:30.940062976,0.05027490234375,-0.14124853515625,10.184258789062499,0.0,0.0,0.0,359.0933672274511,359.62827376837566,5.106103894107286
2026-09-28 19:35:30.940062976,0.06463916015625,-0.17715917968749997,10.20819921875,0.0,0.0,0.0,359.0939182946934,359.62812172782554,5.105962012484126
2026-09-28 19:35:30.962326528,0.07421533203125,-0.17237109374999998,10.234533691406249,0.0010652644360316954,-0.0010652644360316954,0.0,359.0942862152641,359.6276057964667,5.106128402104842
2026-09-28 19:35:30.962326528,0.0813974609375,-0.17955322265624998,10.217775390624999,0.0,-0.0010652644360316954,0.0,359.0942036438521,359.6271242488862,5.1065968633916805
2026-09-28 19:35:30.962326528,0.059851074218749994,-0.19870556640624998,10.201017089843749,0.0,0.0,0.0,359.094157785231,359.6266892429144,5.106761953062044
2026-09-28 19:35:30.978208512,0.07182128906249999,-0.21306982421874998,10.1938349609375,0.0,0.0,0.0,359.0943014633758,359.6269195081249,5.106918116775959
2026-09-28 19:35:30.978208512,0.09336767578124999,-0.1675830078125,10.2321396484375,0.0,0.0,0.0,359.0942631323558,359.6268589109154,5.107080383157009
2026-09-28 19:35:30.978208512,0.12688427734375,-0.17237109374999998,10.1268017578125,0.0,0.0,0.0,359.09448061210213,359.6263655590681,5.106938702576711
2026-09-28 19:35:30.978208512,0.1005498046875,-0.15800683593749998,10.22016943359375,0.0,0.0,0.0,359.09481466047055,359.6254085368467,5.106803001030843
2026-09-28 19:35:30.978208512,0.0813974609375,-0.16518896484374998,10.256080078124999,0.0,0.0,0.0,359.0951550332251,359.6246685852095,5.10635742617071
2026-09-28 19:35:30.978208512,0.1005498046875,-0.14124853515625,10.172288574218749,0.0,0.0,0.0,359.0949189663773,359.62485494539806,5.105902001264161
2026-09-28 19:35:30.978208512,0.08857958984374999,-0.18673535156249998,10.162712402343749,0.0,0.0,0.0,359.09545719896647,359.62496355409394,5.106055577669647
2026-09-28 19:35:30.978208512,0.05027490234375,-0.124490234375,10.236927734375,0.0,-0.0010652644360316954,0.0,359.0950001341279,359.62439580194973,5.105916298760989
2026-09-28 19:35:30.978208512,0.08618554687499999,-0.1292783203125,10.162712402343749,0.0,0.0010652644360316954,0.0010652644360316954,359.0952746415569,359.6251610675805,5.106064908239955
2026-09-28 19:35:30.993835520,0.08857958984374999,-0.15321875,10.162712402343749,0.0,0.0,0.0,359.09510455673626,359.6254846755066,5.106219110344705
2026-09-28 19:35:30.993835520,0.09336767578124999,-0.15561279296875,10.217775390624999,0.0,0.0,0.0,359.0948150208816,359.6256882993892,5.106374066684859
2026-09-28 19:35:30.993835520,0.04548681640625,-0.15321875,10.22016943359375,0.0,0.0,0.0,359.0950443258343,359.6252745537092,5.106839679949496
2026-09-28 19:35:31.009457664,0.0813974609375,-0.18912939453125,10.1651064453125,0.0,0.0,0.0,359.09525641430736,359.6254707781689,5.106388107792446
2026-09-28 19:35:31.040706816,0.0813974609375,-0.16518896484374998,10.184258789062499,0.0,0.0,0.0,359.09539384986357,359.62592155685485,5.106234418858407
2026-09-28 19:35:31.087580416,0.07182128906249999,-0.17955322265624998,10.15313623046875,0.0,-0.0010652644360316954,0.0,359.09515552902906,359.6247053877982,5.106408406459264
2026-09-28 19:35:31.087580416,0.05266894531249999,-0.15561279296875,10.1363779296875,0.0,0.0,0.0,359.0952597955454,359.62478975338763,5.106562791957717
2026-09-28 19:35:31.103206912,0.067033203125,-0.13646044921875,10.15313623046875,0.0,-0.0010652644360316954,0.0,359.09517715939506,359.624732823772,5.107026450658779
2026-09-28 19:35:31.103206912,0.035910644531249994,-0.14364257812499998,10.160318359375,0.0,0.0,0.0,359.0954640040059,359.6241610615649,5.106884286380013
2026-09-28 19:35:31.103206912,0.03112255859375,-0.1484306640625,10.157924316406248,0.0,0.0,-0.0010652644360316954,359.09578251756926,359.62383839443385,5.106436709826487
2026-09-28 19:35:31.134457600,0.07421533203125,-0.15561279296875,10.1938349609375,-0.0010652644360316954,0.0,0.0,359.0948187178167,359.62366957366413,5.106294681247738
2026-09-28 19:35:31.134457600,0.0909736328125,-0.162794921875,10.19144091796875,0.0,-0.0010652644360316954,0.0,359.09406989604463,359.623361177303,5.106458318391699
2026-09-28 19:35:31.165704704,0.028728515625,-0.15800683593749998,10.229745605468748,0.0,0.0,0.0,359.0940651956287,359.62274954174507,5.1066210507656375
2026-09-28 19:35:31.196953600,0.0143642578125,-0.19391748046875,10.201017089843749,0.0,0.0,0.0,359.09378173038516,359.6227391133982,5.107090838644157
2026-09-28 19:35:31.249671424,0.10773193359375,-0.16997705078124997,10.227351562499999,0.0,0.0,0.0010652644360316954,359.09299217745377,359.6234834767335,5.107547516517331
2026-09-28 19:35:31.249671424,0.05745703125,-0.1484306640625,10.16989453125,0.0,0.0,0.0,359.0930310708377,359.6235139477977,5.108007572158635
2026-09-28 19:35:31.249671424,0.076609375,-0.15800683593749998,10.189046874999999,0.0,0.0,0.0,359.0932380781201,359.6236348104631,5.1084713142944755
2026-09-28 19:35:31.249671424,0.08857958984374999,-0.17476513671875,10.189046874999999,0.0,0.0010652644360316954,0.0,359.093563164718,359.62438614772395,5.1086166321225175
2026-09-28 19:35:31.254694144,0.07182128906249999,-0.16040087890625,10.1938349609375,0.0,0.0,0.0,359.09316223166485,359.62461282752025,5.1090775583906165
2026-09-28 19:35:31.255677440,0.07182128906249999,-0.15800683593749998,10.184258789062499,0.0,0.0,0.0010652644360316954,359.09307805045796,359.62438751952345,5.10954333093124
2026-09-28 19:35:31.257684224,0.05027490234375,-0.14124853515625,10.1651064453125,0.0,0.0,0.0,359.0932307105752,359.6241423602196,5.109707136702403
2026-09-28 19:35:31.257684224,0.08618554687499999,-0.181947265625,10.1938349609375,0.0,0.0,0.0,359.0931594606097,359.6244101582209,5.109555567891562
2026-09-28 19:35:31.257684224,0.03112255859375,-0.18912939453125,10.179470703124998,0.0,-0.0010652644360316954,0.0,359.0931450215015,359.6226506612859,5.109434656575483
2026-09-28 19:35:31.257684224,0.08857958984374999,-0.14364257812499998,10.18186474609375,0.0010652644360316954,0.0010652644360316954,0.0,359.0937925277226,359.6238891762801,5.109274788878161
2026-09-28 19:35:31.257684224,0.08379150390625,-0.1675830078125,10.25368603515625,0.0,0.0,0.0,359.09391806903204,359.62395857919154,5.109123995416942
2026-09-28 19:35:31.257684224,0.08379150390625,-0.15561279296875,10.155530273437499,0.0,0.0,0.0,359.09406563476216,359.62383249572224,5.108977897719845
2026-09-28 19:35:31.265208064,0.07421533203125,-0.16997705078124997,10.18665283203125,0.0,-0.0010652644360316954,-0.0010652644360316954,359.09341484849864,359.6236807656538,5.108222771306138
2026-09-28 19:35:31.265208064,0.035910644531249994,-0.15800683593749998,10.189046874999999,0.0,0.0,0.0,359.0933081082953,359.6236270141663,5.107773187598315
2026-09-28 19:35:31.265208064,0.06463916015625,-0.14124853515625,10.150742187499999,0.0,0.0,0.0,359.0935994326473,359.6238973793973,5.107626154154083
2026-09-28 19:35:31.298093312,0.059851074218749994,-0.16040087890625,10.22016943359375,0.0,0.0,0.0010652644360316954,359.0936249564735,359.62398754462185,5.108089091746309
2026-09-28 19:35:31.320765952,0.07421533203125,-0.15800683593749998,10.21538134765625,0.0,0.0,0.0,359.09405268176704,359.624154762144,5.107328114717009
2026-09-28 19:35:31.320765952,0.09815576171875,-0.181947265625,10.18665283203125,0.0,-0.0010652644360316954,0.0010652644360316954,359.0939834426779,359.62334243919764,5.107498251989969
2026-09-28 19:35:31.351991552,0.08857958984374999,-0.19152343749999998,10.212987304687498,0.0,0.0,-0.0010652644360316954,359.0943157397099,359.62286671628254,5.107052606993482
2026-09-28 19:35:31.398866432,0.06942724609374999,-0.1484306640625,10.246503906249998,0.0010652644360316954,0.0,0.0,359.0944344591006,359.6227550790907,5.106908639686901
2026-09-28 19:35:31.398866432,0.10294384765624999,-0.162794921875,10.17707666015625,0.0,0.0,0.0,359.09467765908585,359.6226403150249,5.10645688604814
2026-09-28 19:35:31.398866432,0.09815576171875,-0.18434130859374998,10.229745605468748,0.0010652644360316954,0.0,0.0010652644360316954,359.094543204891,359.6220715561346,5.106925816329795
2026-09-28 19:35:31.398866432,0.05745703125,-0.1675830078125,10.17707666015625,0.0,0.0,0.0010652644360316954,359.0945878100924,359.6217044422134,5.107397493544581
2026-09-28 19:35:31.398866432,0.07182128906249999,-0.15561279296875,10.198623046875,0.0,0.0,0.0,359.0943162427291,359.6220494232973,5.107547512286843
2026-09-28 19:35:31.414493440,0.06942724609374999,-0.18673535156249998,10.2034111328125,0.0,0.0,0.0,359.09416859088094,359.6221459445395,5.107091424857914
2026-09-28 19:35:31.414493440,0.09815576171875,-0.14603662109374999,10.189046874999999,0.0,0.0,0.0010652644360316954,359.0944387952904,359.62172539066825,5.107561638733016
2026-09-28 19:35:31.414493440,0.09336767578124999,-0.19152343749999998,10.212987304687498,0.0,-0.0010652644360316954,0.0,359.0953857154192,359.62110967231337,5.107419122514499
2026-09-28 19:35:31.414493440,0.047880859374999994,-0.15082470703124998,10.25847412109375,0.0,-0.0010652644360316954,0.0,359.09527373832043,359.6202842843937,5.107284406394015
2026-09-28 19:35:31.414493440,0.07182128906249999,-0.16518896484374998,10.212987304687498,0.0,0.0010652644360316954,0.0,359.09539940435207,359.62103568963516,5.107738989313324
2026-09-28 19:35:31.414493440,0.0813974609375,-0.13885449218749998,10.22016943359375,0.0010652644360316954,0.0,0.0010652644360316954,359.0958431790171,359.6213690058797,5.107893224576223
2026-09-28 19:35:31.445741056,0.047880859374999994,-0.14124853515625,10.2034111328125,0.0,0.0,0.0,359.09600574938565,359.62085279680423,5.1080569154658315
2026-09-28 19:35:31.476990720,0.09336767578124999,-0.17476513671875,10.157924316406248,0.0,0.0,0.0,359.0961009400532,359.62192750117515,5.1082017694083595
2026-09-28 19:35:31.476990720,0.08857958984374999,-0.16040087890625,10.260868164062499,-0.0021305288720633907,0.0,0.0,359.0948003357431,359.62172680598786,5.108362292235076
2026-09-28 19:35:31.476990720,0.06942724609374999,-0.17237109374999998,10.2034111328125,0.0,-0.0010652644360316954,0.0,359.0951867967797,359.6211097860754,5.107916403021055
2026-09-28 19:35:31.523871232,0.07900341796874999,-0.17237109374999998,10.20819921875,0.0010652644360316954,0.0010652644360316954,0.0,359.09565724200945,359.6216022297631,5.108065737506763
2026-09-28 19:35:31.523871232,0.07900341796874999,-0.18434130859374998,10.160318359375,0.0,0.0,-0.0010652644360316954,359.0962029266846,359.6214648958874,5.107005612219152
2026-09-28 19:35:31.523871232,0.05027490234375,-0.17955322265624998,10.184258789062499,0.0,0.0,0.0,359.0959022329469,359.6216856720319,5.106855585883307
2026-09-28 19:35:31.570791168,0.05266894531249999,-0.17237109374999998,10.217775390624999,0.0,0.0010652644360316954,0.0,359.0951939054823,359.6223919586155,5.106396427449783
2026-09-28 19:35:31.570791168,0.1005498046875,-0.16997705078124997,10.227351562499999,0.0,0.0,0.0,359.0944854078058,359.62257151238606,5.106247146690316
2026-09-28 19:35:31.570791168,0.05745703125,-0.16040087890625,10.17707666015625,0.0010652644360316954,0.0,0.0,359.0945275653558,359.62251538911977,5.106098950456423
2026-09-28 19:35:31.570791168,0.08618554687499999,-0.17715917968749997,10.184258789062499,0.0,0.0,0.0,359.0943806850391,359.6227094445644,5.105950068031669
2026-09-28 19:35:31.570791168,0.08379150390625,-0.15082470703124998,10.17707666015625,0.0,0.0,0.0,359.0942207569129,359.62283711454273,5.10610634353314
2026-09-28 19:35:31.570791168,0.0622451171875,-0.16040087890625,10.260868164062499,0.0,-0.0010652644360316954,0.0010652644360316954,359.09369482553006,359.62249477090785,5.106575737852714
2026-09-28 19:35:31.570791168,0.07421533203125,-0.15800683593749998,10.212987304687498,0.0,-0.0010652644360316954,0.0,359.0935401483976,359.6220200558783,5.106739516616273
2026-09-28 19:35:31.570791168,0.043092773437499995,-0.18434130859374998,10.167500488281249,0.0021305288720633907,0.0,0.0,359.09388366306274,359.62206296142386,5.106284203554639
2026-09-28 19:35:31.586363904,0.09576171874999999,-0.18673535156249998,10.25847412109375,0.0,0.0,0.0010652644360316954,359.0940580880271,359.6224495573292,5.106745384146481
2026-09-28 19:35:31.586363904,0.0909736328125,-0.17715917968749997,10.1651064453125,0.0,0.0,0.0,359.09349752887135,359.62287924391785,5.107202596075674
2026-09-28 19:35:31.586363904,0.01675830078125,-0.1675830078125,10.205805175781249,0.0,0.0,0.0,359.0933353280339,359.6228913185717,5.10735874530277
2026-09-28 19:35:31.633236736,0.076609375,-0.181947265625,10.22495751953125,0.0010652644360316954,0.0,0.0010652644360316954,359.09354098821325,359.62320339774953,5.108129689327952
2026-09-28 19:35:31.664486400,0.07900341796874999,-0.17237109374999998,10.1938349609375,0.0,0.0,0.0,359.0936000014424,359.62325860776133,5.108589580274238
2026-09-28 19:35:31.664486400,0.055062988281249996,-0.181947265625,10.198623046875,0.0,-0.0021305288720633907,0.0,359.09336610040174,359.62247199474564,5.108758726717902
2026-09-28 19:35:31.664486400,0.06942724609374999,-0.17476513671875,10.2321396484375,0.0,0.0,0.0010652644360316954,359.09394350245645,359.6221758941104,5.109534176729624
2026-09-28 19:35:31.664486400,0.09815576171875,-0.124490234375,10.1746826171875,0.0010652644360316954,0.0,0.0,359.09489979621554,359.6219998652096,5.109388736005923
2026-09-28 19:35:31.726984960,0.06942724609374999,-0.15800683593749998,10.184258789062499,0.0010652644360316954,0.0,0.0,359.0955669465339,359.622219007852,5.10923358613058
2026-09-28 19:35:31.726984960,0.01915234375,-0.16040087890625,10.22495751953125,0.0,0.0,0.0010652644360316954,359.0960000425927,359.62206655811747,5.110003059956219
2026-09-28 19:35:31.774331648,0.05745703125,-0.14603662109374999,10.201017089843749,0.0,0.0,0.0,359.0953682517092,359.6221851789051,5.1101631623904815
2026-09-28 19:35:31.774331648,0.08379150390625,-0.17476513671875,10.189046874999999,0.0,0.0,0.0010652644360316954,359.0957281148619,359.6219028147021,5.110937900365244
2026-09-28 19:35:31.774331648,0.1005498046875,-0.13646044921875,10.138771972656249,0.0,-0.0010652644360316954,0.0,359.0949493698818,359.62183013650593,5.110793899488014
2026-09-28 19:35:31.789956352,0.076609375,-0.17715917968749997,10.2321396484375,0.0,0.0,0.0021305288720633907,359.0948673353162,359.62155228514473,5.111867850160294
2026-09-28 19:35:31.789956352,0.08618554687499999,-0.18912939453125,10.1938349609375,0.0,0.0,0.0,359.09509159615686,359.6207602694239,5.112033223693123
2026-09-28 19:35:31.789956352,0.035910644531249994,-0.14364257812499998,10.1938349609375,0.0,-0.0010652644360316954,0.0010652644360316954,359.0946462877047,359.6201715327653,5.1125040963924935
2026-09-28 19:35:31.789956352,0.076609375,-0.17715917968749997,10.2417158203125,0.0,0.0010652644360316954,0.0,359.09447952765885,359.62098265520484,5.1126536181681566
2026-09-28 19:35:31.789956352,0.0813974609375,-0.17955322265624998,10.244109863281249,0.0,0.0,0.0,359.095106230383,359.6209426695086,5.112508384629167
2026-09-28 19:35:31.789956352,0.09576171874999999,-0.14364257812499998,10.17707666015625,0.0,0.0,0.0,359.0948163122662,359.62103027889515,5.112053319056906
2026-09-28 19:35:31.789956352,0.0622451171875,-0.15321875,10.1746826171875,-0.0010652644360316954,-0.0021305288720633907,0.0,359.0941256831046,359.6201408620932,5.112221441046702
2026-09-28 19:35:31.789956352,0.05266894531249999,-0.16997705078124997,10.227351562499999,0.0,0.0,-0.0010652644360316954,359.09396248922474,359.61990275779544,5.111465133154003
2026-09-28 19:35:31.805581056,0.06942724609374999,-0.1963115234375,10.184258789062499,0.0,0.0,0.0,359.0942031335191,359.61927464603684,5.111025100574744
2026-09-28 19:35:31.852454912,0.07182128906249999,-0.16518896484374998,10.201017089843749,0.0,0.0,0.0,359.09568270026756,359.6187714522607,5.111668330576475
2026-09-28 19:35:31.899327744,0.07421533203125,-0.162794921875,10.244109863281249,0.0,0.0,0.0,359.0958334532006,359.6189841670271,5.111517462221433
2026-09-28 19:35:31.977450240,0.08379150390625,-0.17955322265624998,10.179470703124998,0.0,0.0,0.0,359.09593683484854,359.6188805685811,5.111371664452438
2026-09-28 19:35:31.977450240,0.047880859374999994,-0.17476513671875,10.22495751953125,0.0,-0.0010652644360316954,0.0,359.0954466710116,359.61834124901634,5.111537625813819
2026-09-28 19:35:31.977450240,0.04548681640625,-0.17476513671875,10.198623046875,0.0,0.0,0.0,359.09536580708397,359.6186759466421,5.111388230361723
2026-09-28 19:35:32.052852480,0.07900341796874999,-0.16518896484374998,10.19144091796875,0.0010652644360316954,0.0,-0.0010652644360316954,359.0957327555796,359.6188441115422,5.1109374732124415
2026-09-28 19:35:32.055862528,0.07900341796874999,-0.181947265625,10.1938349609375,0.0,0.0010652644360316954,0.0,359.095906807385,359.61919421512266,5.111086681586316
2026-09-28 19:35:32.055862528,0.047880859374999994,-0.19391748046875,10.227351562499999,0.0,0.0,0.0,359.09609475212835,359.61967595532093,5.111235742292051
2026-09-28 19:35:32.055862528,0.0909736328125,-0.17237109374999998,10.16989453125,0.0,0.0,0.0010652644360316954,359.09601735313663,359.6200690666579,5.111696627715639
2026-09-28 19:35:32.055862528,0.09815576171875,-0.17715917968749997,10.179470703124998,0.0,0.0,0.0,359.09591225984155,359.6193482006713,5.11217211848232
2026-09-28 19:35:32.055862528,0.11012597656249999,-0.13406640625,10.1746826171875,0.0,0.0010652644360316954,0.0,359.0958601718679,359.6202005265406,5.112316090204628
2026-09-28 19:35:32.055862528,0.06942724609374999,-0.17476513671875,10.172288574218749,0.0,0.0,0.0,359.0964691742844,359.6204353758664,5.112159308674991
2026-09-28 19:35:32.055862528,0.04069873046875,-0.17476513671875,10.189046874999999,0.0,0.0,0.0010652644360316954,359.0968151014937,359.6200455657391,5.112624180616028
2026-09-28 19:35:32.055862528,0.05266894531249999,-0.15082470703124998,10.239321777343749,0.0,0.0,0.0,359.09706910089113,359.6197830644689,5.112789237103359
2026-09-28 19:35:32.055862528,0.10533789062499999,-0.162794921875,10.2034111328125,0.0010652644360316954,0.0010652644360316954,0.0,359.0970633761038,359.6205711939951,5.112939651633843
2026-09-28 19:35:32.055862528,0.08618554687499999,-0.17715917968749997,10.2321396484375,0.0,-0.0010652644360316954,0.0,359.09686341976385,359.62033981065616,5.113404076466305
2026-09-28 19:35:32.055862528,0.067033203125,-0.13646044921875,10.21538134765625,0.0,0.0,-0.0010652644360316954,359.09739035155127,359.62000282996144,5.11295914545137
2026-09-28 19:35:32.055862528,0.09336767578124999,-0.17476513671875,10.196229003906248,0.0,0.0,0.0,359.0968855588891,359.62035592296274,5.113418821883715
2026-09-28 19:35:32.055862528,0.05266894531249999,-0.13885449218749998,10.1651064453125,0.0,0.0,0.0,359.09735078925553,359.62015200536115,5.113882831690876
2026-09-28 19:35:32.055862528,0.07421533203125,-0.16518896484374998,10.205805175781249,0.0,-0.0010652644360316954,0.0,359.0968971776172,359.6195644948112,5.113746270848221
2026-09-28 19:35:32.055862528,0.07182128906249999,-0.16040087890625,10.239321777343749,0.0,0.0010652644360316954,0.0,359.0969023408575,359.6201801389491,5.113896640496953
2026-09-28 19:35:32.055862528,0.035910644531249994,-0.17955322265624998,10.155530273437499,0.0010652644360316954,0.0,0.0,359.0974519765332,359.620211722162,5.114052165736237
2026-09-28 19:35:32.055862528,0.076609375,-0.13406640625,10.18186474609375,-0.0010652644360316954,-0.0010652644360316954,0.0,359.09679000650607,359.6201236905702,5.113602223868221
2026-09-28 19:35:32.055862528,0.0909736328125,-0.13406640625,10.229745605468748,0.0,0.0,0.0010652644360316954,359.0965654947573,359.62120611779744,5.1140476389879685
2026-09-28 19:35:32.055862528,0.10533789062499999,-0.162794921875,10.17707666015625,0.0,-0.0010652644360316954,0.0,359.0967011058723,359.62071786578,5.1142047981014604
2026-09-28 19:35:32.071655424,0.055062988281249996,-0.15800683593749998,10.167500488281249,0.0,0.0,0.0,359.0962793386541,359.62019728343427,5.114065230764387
2026-09-28 19:35:32.071655424,0.0909736328125,-0.15321875,10.189046874999999,0.0,0.0,0.0010652644360316954,359.09648659275246,359.6203010287106,5.114834218628341
2026-09-28 19:35:32.071655424,0.0622451171875,-0.1675830078125,10.16989453125,0.0,0.0,0.0,359.09659207670984,359.6205942950882,5.114988733997669
2026-09-28 19:35:32.118537728,0.07182128906249999,-0.15321875,10.19144091796875,0.0,0.0,0.0010652644360316954,359.09668683719957,359.62066822691213,5.115453258765807
2026-09-28 19:35:32.135286016,0.04548681640625,-0.16040087890625,10.2417158203125,0.0,0.0010652644360316954,0.0,359.0967686882227,359.62112915978497,5.115297981610486
2026-09-28 19:35:32.181551616,0.0813974609375,-0.1292783203125,10.244109863281249,0.0,0.0010652644360316954,0.0,359.0969771784209,359.6218623276715,5.115448911332213
2026-09-28 19:35:32.181551616,0.0909736328125,-0.17476513671875,10.179470703124998,0.0,0.0,0.0010652644360316954,359.0972847903736,359.6221468873313,5.115907229833104
2026-09-28 19:35:32.181551616,0.05745703125,-0.13406640625,10.150742187499999,0.0021305288720633907,0.0,0.0,359.0976832389476,359.62241265073504,5.115453671276479
2026-09-28 19:35:32.181551616,0.11012597656249999,-0.1484306640625,10.268050292968748,0.0,-0.0010652644360316954,0.0,359.0985098491743,359.6220167980757,5.115011756758385
2026-09-28 19:35:32.181551616,0.0909736328125,-0.15800683593749998,10.17707666015625,0.0010652644360316954,0.0,0.0,359.0990055804902,359.62160125935117,5.115475646722401
2026-09-28 19:35:32.244052480,0.12209619140624998,-0.17237109374999998,10.162712402343749,0.0,0.0,0.0,359.0985003411496,359.621344818866,5.115329766639087
2026-09-28 19:35:32.244052480,0.08379150390625,-0.1675830078125,10.133983886718749,0.0,0.0,0.0,359.09869612929606,359.62069794108413,5.114883082958571
2026-09-28 19:35:32.244052480,0.09815576171875,-0.18912939453125,10.18186474609375,0.0,0.0,0.0,359.09879814107086,359.6203834071468,5.114432262659328
2026-09-28 19:35:32.244052480,0.09336767578124999,-0.16518896484374998,10.198623046875,0.0,0.0,0.0,359.0988915306142,359.61985702867736,5.1145964948685
2026-09-28 19:35:32.306550272,0.07900341796874999,-0.17955322265624998,10.222563476562499,0.0,-0.0021305288720633907,0.0,359.09919816649693,359.6184512028098,5.114470631226089
2026-09-28 19:35:32.306550272,0.12209619140624998,-0.1675830078125,10.160318359375,0.0,0.0010652644360316954,0.0,359.09920710018736,359.61897426523876,5.114620889744756
2026-09-28 19:35:32.322172928,0.1149140625,-0.18434130859374998,10.2321396484375,0.0,0.0,0.0,359.0992299661488,359.61856915561856,5.114780664033886
2026-09-28 19:35:32.322172928,0.076609375,-0.1963115234375,10.251291992187499,0.0,0.0,0.0,359.09878233922933,359.61815661666793,5.114329336989796
2026-09-28 19:35:32.322172928,0.076609375,-0.162794921875,10.167500488281249,0.0010652644360316954,0.0010652644360316954,0.0,359.0987444820755,359.6190343829677,5.114170101241307
2026-09-28 19:35:32.322172928,0.06942724609374999,-0.15800683593749998,10.18665283203125,0.0,0.0,0.0,359.0989921202664,359.6190807176535,5.113715532671929
2026-09-28 19:35:32.322172928,0.10533789062499999,-0.1963115234375,10.201017089843749,0.0,0.0010652644360316954,0.0,359.0993000041484,359.61978519106145,5.113560799417332
2026-09-28 19:35:32.322172928,0.0813974609375,-0.13167236328124998,10.14356005859375,0.0,0.0,0.0,359.09917176963336,359.61943661197495,5.113111521051624
2026-09-28 19:35:32.322172928,0.08618554687499999,-0.18434130859374998,10.229745605468748,0.0,0.0010652644360316954,0.0,359.09941002490194,359.61988222766377,5.112650159713386
2026-09-28 19:35:32.322172928,0.09336767578124999,-0.19152343749999998,10.179470703124998,0.0,0.0,0.0,359.09941183286185,359.6200211195461,5.1128005244939665
2026-09-28 19:35:32.322172928,0.0622451171875,-0.17476513671875,10.16989453125,0.0,0.0,0.0,359.0991707169357,359.61984680671793,5.112656982784618
2026-09-28 19:35:32.322172928,0.11012597656249999,-0.15561279296875,10.1746826171875,0.0,0.0,0.0,359.0994401480197,359.6201393860043,5.112812402088036
2026-09-28 19:35:32.322172928,0.07182128906249999,-0.162794921875,10.189046874999999,0.0,0.0010652644360316954,0.0010652644360316954,359.09951232530716,359.6202725754511,5.113572569987366
2026-09-28 19:35:32.337797888,0.05266894531249999,-0.16518896484374998,10.179470703124998,0.0,0.0,0.0,359.09995892152625,359.6202219272173,5.113731583532044
2026-09-28 19:35:32.404020480,0.07421533203125,-0.17476513671875,10.217775390624999,0.0,0.0,0.0010652644360316954,359.0999632521742,359.6203211475545,5.114196777519567
2026-09-28 19:35:32.404020480,0.055062988281249996,-0.162794921875,10.17707666015625,0.0,0.0,0.0010652644360316954,359.10002402497497,359.620554552844,5.114656733371032
2026-09-28 19:35:32.404020480,0.0813974609375,-0.14364257812499998,10.184258789062499,0.0021305288720633907,0.0,0.0,359.1011110952616,359.6204279863046,5.11420539306338
2026-09-28 19:35:32.404020480,0.06942724609374999,-0.17955322265624998,10.160318359375,0.0,0.0,0.0,359.1015666644783,359.6204701601308,5.114359573634
2026-09-28 19:35:32.459766272,0.09576171874999999,-0.18434130859374998,10.2417158203125,0.0,0.0,0.0,359.10060284105504,359.6212610978991,5.114205184140632
2026-09-28 19:35:32.459766272,0.05266894531249999,-0.19152343749999998,10.1746826171875,0.0,0.0,0.0010652644360316954,359.10026007544195,359.62129767987335,5.114665841164026
2026-09-28 19:35:32.459766272,0.035910644531249994,-0.1675830078125,10.160318359375,0.0,0.0,0.0010652644360316954,359.09976200986597,359.62157548637333,5.114822376034822
2026-09-28 19:35:32.538429696,0.08857958984374999,-0.15561279296875,10.25847412109375,0.0,-0.0010652644360316954,0.0,359.0990086426284,359.6216042727293,5.115288546330594
2026-09-28 19:35:32.538429696,0.06942724609374999,-0.15082470703124998,10.20819921875,0.0010652644360316954,0.0,0.0,359.09990137720325,359.6214429009816,5.115143531272168
2026-09-28 19:35:32.538429696,0.059851074218749994,-0.14364257812499998,10.198623046875,0.0,0.0,-0.0010652644360316954,359.10022184122795,359.6216284798565,5.1143811932258725
2026-09-28 19:35:32.538429696,0.08618554687499999,-0.15561279296875,10.160318359375,0.0,0.0,0.0,359.10034315838857,359.6214819899844,5.11362501651483
2026-09-28 19:35:32.538429696,0.047880859374999994,-0.11730810546874999,10.246503906249998,0.0,0.0,0.0010652644360316954,359.10014494617076,359.62133395254256,5.113784395352439
2026-09-28 19:35:32.538429696,0.026334472656249996,-0.16040087890625,10.244109863281249,0.0,0.0,0.0,359.1003642110074,359.6218779571055,5.113933403872455
2026-09-28 19:35:32.538429696,0.0813974609375,-0.1484306640625,10.22016943359375,0.0,0.0,0.0,359.1002075784288,359.6220999427648,5.113787228570084
2026-09-28 19:35:32.616550144,0.067033203125,-0.13885449218749998,10.239321777343749,0.0,0.0,0.0010652644360316954,359.10027958151863,359.62228188737225,5.1145522406112836
2026-09-28 19:35:32.616550144,0.08379150390625,-0.15800683593749998,10.201017089843749,0.0,0.0010652644360316954,0.0010652644360316954,359.1006825272664,359.623073294075,5.1150004047881135
2026-09-28 19:35:32.616550144,0.0383046875,-0.18912939453125,10.268050292968748,0.0,0.0010652644360316954,-0.0010652644360316954,359.1011180278838,359.62365814415085,5.11453487582072
2026-09-28 19:35:32.616550144,0.07421533203125,-0.16518896484374998,10.222563476562499,0.0,-0.0010652644360316954,0.0010652644360316954,359.10069279003176,359.6236352027457,5.115000784641111
2026-09-28 19:35:32.616550144,0.09336767578124999,-0.13885449218749998,10.19144091796875,0.0,0.0010652644360316954,0.0,359.1012383431789,359.6238605215127,5.115459587019134
2026-09-28 19:35:32.616550144,0.06463916015625,-0.16997705078124997,10.184258789062499,0.0,0.0,0.0,359.1012071775451,359.6238336125948,5.115002887879092
2026-09-28 19:35:32.616550144,0.08379150390625,-0.15082470703124998,10.239321777343749,0.0,-0.0021305288720633907,0.0,359.1005809194512,359.6232094920652,5.114562420110267
2026-09-28 19:35:32.616550144,0.06942724609374999,-0.16518896484374998,10.150742187499999,0.0,0.0,0.0010652644360316954,359.1001238397948,359.62315142558566,5.1153317073841125
2026-09-28 19:35:32.616550144,0.07182128906249999,-0.1675830078125,10.212987304687498,0.0,0.0,0.0010652644360316954,359.10015051569883,359.62333635740185,5.11579196353832
2026-09-28 19:35:32.616550144,0.07421533203125,-0.13406640625,10.184258789062499,0.0,-0.0010652644360316954,0.0010652644360316954,359.09930544747374,359.6228837390912,5.116873713771957
2026-09-28 19:35:32.616550144,0.08618554687499999,-0.124490234375,10.21059326171875,0.0,0.0,-0.0010652644360316954,359.0991994473036,359.62249455118956,5.116121807550783
2026-09-28 19:35:32.632179712,0.10294384765624999,-0.19391748046875,10.234533691406249,0.0,0.0,0.0,359.09909549038264,359.6226755807735,5.1159705295575035
2026-09-28 19:35:32.632179712,0.0909736328125,-0.181947265625,10.1938349609375,0.0,0.0,0.0010652644360316954,359.098775001772,359.6224733053145,5.116741013471693
2026-09-28 19:35:32.632179712,0.05745703125,-0.15800683593749998,10.21538134765625,0.0,0.0,0.0010652644360316954,359.09864564756816,359.6223335465581,5.117512224442314
2026-09-28 19:35:32.723401728,0.08379150390625,-0.19152343749999998,10.179470703124998,0.0,-0.0010652644360316954,0.0,359.0980655110024,359.62227543314395,5.11736695190646
2026-09-28 19:35:32.724352256,0.13646044921875,-0.17476513671875,10.19144091796875,0.0,0.0,0.0,359.0977991729697,359.62234722130086,5.11722355031338
2026-09-28 19:35:32.724352256,0.055062988281249996,-0.16997705078124997,10.14834814453125,0.0,0.0,0.0,359.09694088249034,359.6224492004393,5.117068496588578
2026-09-28 19:35:32.724352256,0.07182128906249999,-0.17715917968749997,10.129195800781249,0.0,-0.0010652644360316954,0.0,359.0967438103098,359.62218993724355,5.116927503820026
2026-09-28 19:35:32.724352256,0.0909736328125,-0.19870556640624998,10.212987304687498,0.0,0.0,0.0,359.0967563555942,359.62232069820095,5.117082594880083
2026-09-28 19:35:32.724352256,0.10773193359375,-0.14603662109374999,10.21059326171875,0.0,0.0,0.0,359.09660257790165,359.62202936083617,5.117243609481348
2026-09-28 19:35:32.795290112,0.08857958984374999,-0.18434130859374998,10.205805175781249,0.0,-0.0010652644360316954,0.0,359.0963408691434,359.62201639487404,5.117398613445502
2026-09-28 19:35:32.795290112,0.09336767578124999,-0.16040087890625,10.212987304687498,0.0,-0.0010652644360316954,0.0,359.09600014087573,359.62195551749085,5.117863891302645
2026-09-28 19:35:32.795290112,0.0622451171875,-0.15321875,10.21059326171875,0.0,0.0,0.0,359.09616894933436,359.6213159308184,5.11772237344625
2026-09-28 19:35:32.795290112,0.05027490234375,-0.17715917968749997,10.196229003906248,0.0,-0.0010652644360316954,0.0,359.0964034670891,359.6208306538963,5.117275434997234
2026-09-28 19:35:32.889094400,0.08618554687499999,-0.17715917968749997,10.212987304687498,0.0,0.0,0.0,359.0965120730921,359.62084531951575,5.117436667348529
2026-09-28 19:35:32.889094400,0.0622451171875,-0.162794921875,10.1938349609375,0.0,0.0,0.0,359.09623762405164,359.62104680067074,5.117591600317579
2026-09-28 19:35:32.889094400,0.04548681640625,-0.16040087890625,10.205805175781249,0.0,0.0,0.0,359.0953537557795,359.62113617930237,5.117441449283673
2026-09-28 19:35:32.967196928,0.047880859374999994,-0.17715917968749997,10.2321396484375,0.0,-0.0010652644360316954,0.0,359.09517310805836,359.62056716562927,5.117610250102692
2026-09-28 19:35:32.967196928,0.06463916015625,-0.18912939453125,10.162712402343749,0.0,0.0,0.0,359.09508178153015,359.6208875644608,5.116850674035287
2026-09-28 19:35:32.982822656,0.07421533203125,-0.17476513671875,10.21059326171875,0.0,0.0,0.0,359.09523072487013,359.621319870289,5.1166968732510085
2026-09-28 19:35:32.982822656,0.028728515625,-0.15082470703124998,10.19144091796875,0.0,0.0,0.0010652644360316954,359.09497983007316,359.62113928076616,5.117161721879758
2026-09-28 19:35:32.982822656,0.11012597656249999,-0.19152343749999998,10.1746826171875,0.0,-0.0010652644360316954,0.0,359.0952446605786,359.6210175981477,5.117019748025202
2026-09-28 19:35:32.982822656,0.0813974609375,-0.19870556640624998,10.227351562499999,0.0,0.0,0.0,359.0947830390465,359.6206604203737,5.117180715695078
2026-09-28 19:35:32.982822656,0.10294384765624999,-0.17715917968749997,10.20819921875,0.0,0.0,0.0,359.0945647025779,359.6207957378215,5.117337257893064
2026-09-28 19:35:32.998447616,0.0909736328125,-0.15321875,10.162712402343749,0.0,0.0,0.0,359.09418969124647,359.62101331460855,5.11688070492543
2026-09-28 19:35:32.998447616,0.06942724609374999,-0.19870556640624998,10.155530273437499,0.0,-0.0010652644360316954,0.0,359.0936476289811,359.62084594515704,5.117345337254243
2026-09-28 19:35:33.014072576,0.047880859374999994,-0.1675830078125,10.18186474609375,0.0,0.0,0.0,359.0935382144326,359.62114236514367,5.117206179013688
2026-09-28 19:35:33.014072576,0.0622451171875,-0.201099609375,10.236927734375,0.0,0.0,0.0,359.09314717628365,359.62158550235677,5.1176670483955045
2026-09-28 19:35:33.014072576,0.07182128906249999,-0.16997705078124997,10.184258789062499,0.0,0.0,-0.0010652644360316954,359.0921353939201,359.6215077518081,5.1169143630153
2026-09-28 19:35:33.117505024,0.009576171875,-0.14124853515625,10.2417158203125,0.0,-0.0021305288720633907,0.0,359.09182834044924,359.6207806813399,5.116473835002093
2026-09-28 19:35:33.118397184,0.10773193359375,-0.162794921875,10.172288574218749,0.0,-0.0010652644360316954,0.0010652644360316954,359.0914837112348,359.62133872757676,5.116632121427963
2026-09-28 19:35:33.202140672,0.0622451171875,-0.14364257812499998,10.155530273437499,0.0,0.0,0.0,359.09137872606306,359.62143340564955,5.116787928449241
2026-09-28 19:35:33.202140672,0.06463916015625,-0.13885449218749998,10.15313623046875,0.0,-0.0010652644360316954,0.0010652644360316954,359.0916876398693,359.62139039338496,5.116946006079527
2026-09-28 19:35:33.202140672,0.09815576171875,-0.16997705078124997,10.2034111328125,0.0,-0.0010652644360316954,0.0,359.0914153020005,359.62085856473277,5.117110689425975
2026-09-28 19:35:33.202140672,0.0909736328125,-0.162794921875,10.234533691406249,-0.0010652644360316954,0.0,0.0,359.09073616435654,359.6214238679741,5.116954344879664
2026-09-28 19:35:33.202140672,0.06942724609374999,-0.18434130859374998,10.21538134765625,0.0,0.0,0.0,359.09104884317287,359.6211964979475,5.116809101923649
2026-09-28 19:35:33.312358912,0.08618554687499999,-0.1675830078125,10.145954101562499,0.0010652644360316954,0.0,0.0,359.09152770275284,359.62113976822144,5.116660061698898
2026-09-28 19:35:33.437978624,0.0813974609375,-0.16518896484374998,10.201017089843749,0.0010652644360316954,0.0,0.0010652644360316954,359.0920397390987,359.6212776379336,5.117121043190724
2026-09-28 19:35:33.437978624,0.1292783203125,-0.16518896484374998,10.239321777343749,0.0,0.0,0.0,359.09213462968074,359.6207576938193,5.116980136927671
2026-09-28 19:35:33.437978624,0.08857958984374999,-0.15561279296875,10.21538134765625,0.0,0.0,0.0010652644360316954,359.09181686119206,359.62045417523956,5.117750593675184
2026-09-28 19:35:33.437978624,0.06942724609374999,-0.1963115234375,10.198623046875,-0.0010652644360316954,0.0,0.0,359.0911487292815,359.62050280602955,5.117295942355127
2026-09-28 19:35:33.437978624,0.04069873046875,-0.1675830078125,10.21059326171875,0.0,0.0010652644360316954,0.0,359.0910297148487,359.62120798000325,5.117446974466698
2026-09-28 19:35:33.437978624,0.06942724609374999,-0.19152343749999998,10.16989453125,0.0010652644360316954,0.0,0.0,359.09170979674656,359.6216947863711,5.1172965446584735
2026-09-28 19:35:33.437978624,0.08857958984374999,-0.15321875,10.201017089843749,0.0,0.0,0.0,359.0916666602234,359.62163302905327,5.11776192319551
2026-09-28 19:35:33.453603072,0.0622451171875,-0.16518896484374998,10.172288574218749,0.0,0.0,0.0,359.0910725967503,359.62125866571273,5.117616700971432
2026-09-28 19:35:33.453603072,0.0622451171875,-0.13167236328124998,10.167500488281249,0.0,-0.0010652644360316954,0.0,359.0913777897173,359.6203861311421,5.117180984599854
2026-09-28 19:35:33.453603072,0.07421533203125,-0.16997705078124997,10.16989453125,0.0,0.0,0.0,359.0922938912925,359.61981372763444,5.117043471054343
2026-09-28 19:35:33.453603072,0.076609375,-0.20828173828125,10.22495751953125,0.0010652644360316954,0.0,0.0010652644360316954,359.0926326571069,359.62010002251765,5.1175035699133815
2026-09-28 19:35:33.453603072,0.08379150390625,-0.19391748046875,10.217775390624999,0.0,-0.0010652644360316954,0.0021305288720633907,359.0920143193903,359.6198396484873,5.118579039323352
2026-09-28 19:35:33.453603072,0.07182128906249999,-0.15561279296875,10.20819921875,0.0010652644360316954,0.0,0.0,359.0917380935094,359.6202081289588,5.119041156235307
2026-09-28 19:35:33.594732800,0.05266894531249999,-0.15800683593749998,10.179470703124998,0.0,0.0010652644360316954,0.0010652644360316954,359.0920914579514,359.62077245509994,5.119496285675372
2026-09-28 19:35:33.594732800,0.08857958984374999,-0.16997705078124997,10.201017089843749,0.0,0.0,0.0010652644360316954,359.09262416836924,359.6204558756756,5.1205750366713225
2026-09-28 19:35:33.709496576,0.076609375,-0.16997705078124997,10.227351562499999,0.0010652644360316954,0.0,0.0,359.0932990714254,359.62033470159247,5.120424720031032
2026-09-28 19:35:33.709558784,0.05027490234375,-0.16040087890625,10.1746826171875,0.0010652644360316954,0.0,0.0,359.09396295903525,359.6200501620162,5.119974177160548
2026-09-28 19:35:33.709558784,0.06463916015625,-0.17237109374999998,10.172288574218749,0.0,0.0,0.0010652644360316954,359.0940463401866,359.62070119932855,5.1201240654795415
2026-09-28 19:35:33.864489472,0.076609375,-0.17476513671875,10.19144091796875,0.0010652644360316954,0.0010652644360316954,0.0010652644360316954,359.0944201604484,359.6213166259273,5.120579148409845
2026-09-28 19:35:33.864489472,0.08857958984374999,-0.1675830078125,10.196229003906248,-0.0010652644360316954,-0.0010652644360316954,0.0010652644360316954,359.0941333390774,359.6207979826002,5.12135420975745
2026-09-28 19:35:33.864489472,0.0813974609375,-0.1675830078125,10.167500488281249,0.0,-0.0010652644360316954,0.0,359.09420776765177,359.6197073668456,5.121223090286949
2026-09-28 19:35:33.864489472,0.047880859374999994,-0.17955322265624998,10.28720263671875,0.0010652644360316954,-0.0010652644360316954,0.0021305288720633907,359.0955348339746,359.6189643779304,5.122002249271249
2026-09-28 19:35:34.014820608,0.0622451171875,-0.14124853515625,10.227351562499999,0.0,0.0,0.0,359.0956505795614,359.6190966609864,5.122466653889969
2026-09-28 19:35:34.014820608,0.05745703125,-0.16040087890625,10.18186474609375,0.0,0.0010652644360316954,0.0,359.09586776691833,359.6197652079562,5.122615494689718
2026-09-28 19:35:34.014820608,0.059851074218749994,-0.17237109374999998,10.157924316406248,0.0,0.0,0.0,359.0955688413446,359.619811622061,5.122165280202973
2026-09-28 19:35:34.026827776,0.07421533203125,-0.17715917968749997,10.172288574218749,0.0,-0.0010652644360316954,0.0021305288720633907,359.09538013012997,359.6200618673949,5.122929948548203
2026-09-28 19:35:34.026827776,0.09815576171875,-0.15561279296875,10.19144091796875,0.0,0.0,0.0,359.0954589013986,359.61963101980643,5.123399448500997
2026-09-28 19:35:34.026827776,0.06463916015625,-0.12209619140624998,10.222563476562499,0.0,0.0,0.0010652644360316954,359.0955808562456,359.61972014648336,5.123858944601021
2026-09-28 19:35:34.026827776,0.07421533203125,-0.16518896484374998,10.1746826171875,0.0010652644360316954,0.0,0.0,359.09619056803575,359.61982060456995,5.124322008576447
2026-09-28 19:35:34.042461184,0.08857958984374999,-0.19870556640624998,10.1651064453125,0.0,0.0010652644360316954,0.0,359.096375613492,359.6204725325672,5.1244711056429315
2026-09-28 19:35:34.042461184,0.067033203125,-0.15800683593749998,10.162712402343749,0.0,0.0,0.0,359.09630718424944,359.6206378046247,5.124931863261083
2026-09-28 19:35:34.042461184,0.08618554687499999,-0.162794921875,10.22495751953125,0.0,0.0,0.0,359.09651625980246,359.62037214408883,5.1250952928626585
2026-09-28 19:35:34.058086656,0.05027490234375,-0.162794921875,10.179470703124998,0.0,0.0,0.0,359.0965136554326,359.6208648265828,5.124800231498073
2026-09-28 19:35:34.058086656,0.05745703125,-0.18434130859374998,10.217775390624999,0.0,0.0,0.0,359.0970687274335,359.6214346049828,5.124948957787311
2026-09-28 19:35:34.058086656,0.05745703125,-0.19152343749999998,10.21538134765625,-0.0010652644360316954,0.0,0.0,359.095930592266,359.6218006927151,5.124800504095045
2026-09-28 19:35:34.058086656,0.07182128906249999,-0.16997705078124997,10.198623046875,0.0,0.0010652644360316954,0.0010652644360316954,359.0958401588074,359.62303826427586,5.125246952281142
2026-09-28 19:35:34.249258496,0.08857958984374999,-0.16040087890625,10.16989453125,0.0,-0.0010652644360316954,-0.0010652644360316954,359.09589299231163,359.62258480929086,5.124496064942745
2026-09-28 19:35:34.249258496,0.05745703125,-0.16518896484374998,10.17707666015625,0.0,0.0,0.0,359.09612169644004,359.6217425553344,5.124356279088141
2026-09-28 19:35:34.249258496,0.059851074218749994,-0.17237109374999998,10.20819921875,0.0,-0.0010652644360316954,0.0,359.0964580738091,359.6212141899212,5.123915514380802
2026-09-28 19:35:34.249258496,0.0909736328125,-0.17955322265624998,10.184258789062499,0.0010652644360316954,0.0,0.0,359.0967429341674,359.62166924064155,5.123455817625361
2026-09-28 19:35:34.394219264,0.11970214843749999,-0.1675830078125,10.18186474609375,0.0,0.0010652644360316954,0.0010652644360316954,359.09708470901927,359.62188577917465,5.123911034874543
2026-09-28 19:35:34.394842880,0.0335166015625,-0.17715917968749997,10.19144091796875,0.0,-0.0010652644360316954,0.0,359.09666365781425,359.6210253743103,5.124076523614139
2026-09-28 19:35:34.394842880,0.0909736328125,-0.15082470703124998,10.179470703124998,0.0,0.0021305288720633907,0.0,359.09669455550915,359.6218896052672,5.124221814263057
2026-09-28 19:35:34.394842880,0.0622451171875,-0.20349365234374997,10.095679199218749,0.0,0.0,0.0,359.0966953836074,359.6220877672423,5.12437694085077
2026-09-28 19:35:34.598057472,0.059851074218749994,-0.17476513671875,10.236927734375,0.0,0.0,0.0,359.09655319387815,359.6219946389283,5.124843035271327
2026-09-28 19:35:34.598057472,0.06463916015625,-0.1675830078125,10.212987304687498,0.0010652644360316954,-0.0021305288720633907,0.0010652644360316954,359.09686413216184,359.62108555140907,5.125322576233699
2026-09-28 19:35:34.598057472,0.08857958984374999,-0.15082470703124998,10.217775390624999,0.0,0.0,0.0010652644360316954,359.097253899584,359.6209217145989,5.125787079579857
2026-09-28 19:35:34.598057472,0.07421533203125,-0.1675830078125,10.189046874999999,0.0010652644360316954,0.0,0.0,359.09762578525863,359.62138719591115,5.125936886057865
2026-09-28 19:35:34.598057472,0.055062988281249996,-0.15082470703124998,10.222563476562499,0.0,-0.0010652644360316954,0.0,359.09735097704396,359.621230113084,5.12609662665694
2026-09-28 19:35:34.769862656,0.06463916015625,-0.16997705078124997,10.201017089843749,0.0,0.0010652644360316954,0.0,359.0972974189336,359.6219406607244,5.125635159532236
2026-09-28 19:35:34.769862656,0.08618554687499999,-0.16518896484374998,10.160318359375,0.0,0.0,0.0,359.0974227286425,359.6222755328928,5.125179362216311
2026-09-28 19:35:34.770868480,0.07900341796874999,-0.16518896484374998,10.227351562499999,0.0,0.0,0.0,359.09702609879474,359.6222485409911,5.125335186668652
2026-09-28 19:35:34.770868480,0.04548681640625,-0.17237109374999998,10.198623046875,0.0,0.0,0.0,359.0968860794808,359.621739808634,5.125492872035482
2026-09-28 19:35:34.770868480,0.06942724609374999,-0.13406640625,10.189046874999999,0.0,0.0010652644360316954,0.0,359.0964859053226,359.6227125502617,5.125627221701215
2026-09-28 19:35:34.770868480,0.07421533203125,-0.15800683593749998,10.18186474609375,0.0,0.0,0.0,359.0969518669932,359.6231497978817,5.125764528514621
2026-09-28 19:35:34.778876928,0.08857958984374999,-0.14124853515625,10.133983886718749,0.0010652644360316954,0.0,0.0010652644360316954,359.0970200966952,359.623512157756,5.1262124142728736
2026-09-28 19:35:34.778876928,0.0622451171875,-0.1484306640625,10.201017089843749,0.0,0.0,0.0,359.0972242666945,359.6235674557028,5.125744158505664
2026-09-28 19:35:34.778876928,0.0383046875,-0.14124853515625,10.227351562499999,0.0010652644360316954,0.0,0.0,359.097463772601,359.62360707770074,5.124972492449924
2026-09-28 19:35:34.778876928,0.09815576171875,-0.15561279296875,10.18665283203125,0.0,-0.0010652644360316954,0.0010652644360316954,359.0973066446815,359.6234252334856,5.125429523341117
2026-09-28 19:35:34.778876928,0.07900341796874999,-0.13885449218749998,10.1938349609375,0.0,0.0,0.0,359.0970541296116,359.6231241269979,5.125882408749405
2026-09-28 19:35:34.778876928,0.08618554687499999,-0.16997705078124997,10.162712402343749,0.0,0.0,0.0,359.09694632340245,359.62341156962793,5.12663451711469
2026-09-28 19:35:34.778876928,0.05266894531249999,-0.13406640625,10.198623046875,0.0,0.0,0.0,359.0966572556407,359.6234238092162,5.12677958600524
2026-09-28 19:35:34.778876928,0.09815576171875,-0.16040087890625,10.21059326171875,0.0,0.0010652644360316954,0.0010652644360316954,359.09695167270326,359.6241896291651,5.127521584889018
2026-09-28 19:35:34.778876928,0.0622451171875,-0.20828173828125,10.16989453125,0.0,0.0,0.0010652644360316954,359.09692665770405,359.624285239161,5.127970138077456
2026-09-28 19:35:34.778876928,0.0909736328125,-0.19870556640624998,10.196229003906248,0.0,0.0,-0.0010652644360316954,359.09645969752364,359.6239495291318,5.127210679164509
2026-09-28 19:35:34.778876928,0.059851074218749994,-0.15321875,10.155530273437499,0.0,0.0,0.0,359.09630261395245,359.62374188752784,5.126749479744202
2026-09-28 19:35:34.778876928,0.0622451171875,-0.15800683593749998,10.229745605468748,0.0,-0.0010652644360316954,0.0,359.0960417450971,359.62309249960737,5.126296694406503
2026-09-28 19:35:34.794876928,0.07421533203125,-0.13406640625,10.189046874999999,0.0010652644360316954,0.0,0.0,359.0965226681047,359.6234968972893,5.1258236624719755
2026-09-28 19:35:34.794876928,0.10294384765624999,-0.17715917968749997,10.189046874999999,0.0,0.0,0.0,359.0967675390585,359.6236159852903,5.125965289679173
2026-09-28 19:35:34.992963072,0.067033203125,-0.162794921875,10.236927734375,0.0,0.0,0.0,359.09686721959065,359.62292148609765,5.125812285286222
2026-09-28 19:35:34.992963072,0.04548681640625,-0.14603662109374999,10.18665283203125,0.0,-0.0021305288720633907,0.0,359.09642648854935,359.6225073590663,5.1256609222807645
2026-09-28 19:35:35.196889600,0.11970214843749999,-0.17237109374999998,10.222563476562499,0.0,0.0,0.0,359.0968041079171,359.62264885625626,5.125503396161247
2026-09-28 19:35:35.196889600,0.07421533203125,-0.201099609375,10.22016943359375,0.0,0.0,0.0,359.09628245893987,359.6218780961848,5.125350494140479
2026-09-28 19:35:35.470979328,0.07900341796874999,-0.17476513671875,10.172288574218749,0.0,0.0,0.0,359.095627575889,359.6225574881403,5.1254913239018105
2026-09-28 19:35:35.470979328,0.06942724609374999,-0.16997705078124997,10.19144091796875,0.0,0.0,0.0,359.0959264687229,359.6226988406926,5.125329491789204
2026-09-28 19:35:35.470979328,0.10533789062499999,-0.13885449218749998,10.205805175781249,0.0,0.0,0.0,359.095455433652,359.62207658207643,5.125483429055931
2026-09-28 19:35:35.714600704,0.07421533203125,-0.15321875,10.184258789062499,0.0,-0.0010652644360316954,0.0,359.0949620773479,359.62152935832717,5.125940677917413
2026-09-28 19:35:35.722745600,0.06942724609374999,-0.12688427734375,10.21059326171875,0.0010652644360316954,0.0,0.0,359.09553870861015,359.6212539587057,5.126086930623542
2026-09-28 19:35:35.722745600,0.07182128906249999,-0.17237109374999998,10.21059326171875,0.0010652644360316954,0.0,0.0,359.09565582289144,359.6211401418042,5.126234096729836
2026-09-28 19:35:35.730252800,0.076609375,-0.18912939453125,10.205805175781249,0.0,0.0,0.0,359.0958899015647,359.6213834409497,5.126377754208962
2026-09-28 19:35:35.730252800,0.05027490234375,-0.16040087890625,10.222563476562499,0.0,-0.0010652644360316954,0.0010652644360316954,359.09607168919547,359.6208845179907,5.126529488310577
2026-09-28 19:35:35.730252800,0.07421533203125,-0.17715917968749997,10.189046874999999,0.0,0.0,0.0,359.0956599719179,359.62079905789096,5.126676122220067
2026-09-28 19:35:35.745887488,0.07421533203125,-0.18912939453125,10.246503906249998,0.0,0.0,0.0,359.09480519143386,359.619872065718,5.127736876033868
2026-09-28 19:35:35.745887488,0.07421533203125,-0.162794921875,10.2034111328125,0.0,0.0,0.0,359.09500544766644,359.6194566202121,5.127890436380168
2026-09-28 19:35:35.745887488,0.08618554687499999,-0.1484306640625,10.205805175781249,0.0,0.0010652644360316954,0.0010652644360316954,359.0947864113727,359.6199997092314,5.1283286206953695
2026-09-28 19:35:35.745887488,0.08618554687499999,-0.18434130859374998,10.25368603515625,0.0010652644360316954,0.0,0.0,359.09510012335346,359.6197412064808,5.128476553583291
2026-09-28 19:35:35.745887488,0.0383046875,-0.19152343749999998,10.212987304687498,0.0,0.0010652644360316954,0.0,359.0949425555728,359.6200031742647,5.128616040157088
2026-09-28 19:35:35.745887488,0.08857958984374999,-0.16040087890625,10.172288574218749,0.0,0.0010652644360316954,0.0,359.09542017398314,359.62078763398273,5.12845029757287
2026-09-28 19:35:35.745887488,0.09815576171875,-0.1675830078125,10.236927734375,0.0,-0.0010652644360316954,0.0,359.09549354072516,359.6203759906697,5.128292769604378
2026-09-28 19:35:35.745887488,0.08618554687499999,-0.17955322265624998,10.236927734375,0.0010652644360316954,0.0010652644360316954,0.0,359.09550937785184,359.62038001028594,5.128130828539036
2026-09-28 19:35:35.745887488,0.09336767578124999,-0.16040087890625,10.172288574218749,0.0,0.0,0.0010652644360316954,359.0953437147092,359.6206172320889,5.128573519283701
2026-09-28 19:35:35.745887488,0.0909736328125,-0.16518896484374998,10.1651064453125,0.0,0.0,0.0,359.095008423886,359.62098873214705,5.128407026620742
2026-09-28 19:35:35.745887488,0.05266894531249999,-0.162794921875,10.201017089843749,0.0,-0.0010652644360316954,0.0,359.09546535982264,359.6199258704996,5.128263480437127
2026-09-28 19:35:35.745887488,0.07182128906249999,-0.16040087890625,10.150742187499999,0.0,0.0,0.0,359.09565605029064,359.6196317828521,5.12872014630063
2026-09-28 19:35:35.761510912,0.07421533203125,-0.15800683593749998,10.18665283203125,0.0,-0.0010652644360316954,0.0010652644360316954,359.09534398121025,359.61896824061336,5.1291782107170425
2026-09-28 19:35:35.761510912,0.055062988281249996,-0.16518896484374998,10.167500488281249,0.0,0.0010652644360316954,0.0,359.09512418270066,359.61914819391234,5.129320830538983
2026-09-28 19:35:35.995880960,0.0813974609375,-0.15561279296875,10.1938349609375,0.0,0.0,0.0,359.0951466208915,359.61941033270466,5.128853813702661
2026-09-28 19:35:36.183939328,0.0622451171875,-0.19870556640624998,10.2034111328125,0.0,0.0,0.0,359.094824278385,359.6201156022971,5.128682449962151
2026-09-28 19:35:36.183939328,0.067033203125,-0.17476513671875,10.198623046875,0.0,0.0,0.0010652644360316954,359.0947550539841,359.62002168743015,5.12913610568779
2026-09-28 19:35:36.199823104,0.067033203125,-0.15321875,10.212987304687498,0.0010652644360316954,0.0,0.0,359.09512235790635,359.62034597373497,5.1292789404498915
2026-09-28 19:35:36.199823104,0.11252001953124999,-0.16518896484374998,10.157924316406248,0.0,0.0,0.0,359.09516632545575,359.6200772643737,5.12973658145676
2026-09-28 19:35:36.199823104,0.07182128906249999,-0.181947265625,10.227351562499999,0.0,0.0,0.0,359.0956121639896,359.6195822659082,5.129273561690304
2026-09-28 19:35:36.199823104,0.028728515625,-0.14603662109374999,10.212987304687498,0.0,0.0,0.0,359.0951886999737,359.6203291392891,5.1291027686537385
2026-09-28 19:35:36.199823104,0.11012597656249999,-0.16040087890625,10.160318359375,0.0021305288720633907,0.0,0.0,359.09590013554293,359.6203347411589,5.129248081966839
2026-09-28 19:35:36.434474240,0.05266894531249999,-0.16040087890625,10.19144091796875,0.0,0.0,0.0,359.0962075591085,359.62037892297315,5.129391355208655
2026-09-28 19:35:36.452120064,0.09815576171875,-0.15800683593749998,10.222563476562499,0.0,-0.0010652644360316954,0.0,359.0955254232695,359.6203921154385,5.129234785825226
2026-09-28 19:35:36.452120064,0.08857958984374999,-0.16518896484374998,10.18186474609375,0.0,0.0,0.0,359.09495471047927,359.62032848339044,5.129072653551035
2026-09-28 19:35:36.453532672,0.07182128906249999,-0.181947265625,10.19144091796875,0.0,0.0,0.0,359.09528945760496,359.61942331915435,5.129535199203894
2026-09-28 19:35:36.669982720,0.09336767578124999,-0.18912939453125,10.212987304687498,0.0,0.0,0.0,359.0950337048436,359.61916039328764,5.1293798232463885
2026-09-28 19:35:36.669982720,0.07421533203125,-0.18434130859374998,10.155530273437499,0.0,0.0,0.0010652644360316954,359.0949873735941,359.6186089008736,5.13014337121411
2026-09-28 19:35:36.669982720,0.076609375,-0.18434130859374998,10.172288574218749,0.0,0.0,0.0,359.0949444579719,359.6185063163856,5.129988699047887
2026-09-28 19:35:36.669982720,0.11012597656249999,-0.17476513671875,10.14834814453125,0.0010652644360316954,0.0010652644360316954,0.0,359.0953761237277,359.61870070577106,5.13013308239837
2026-09-28 19:35:36.669982720,0.05266894531249999,-0.17715917968749997,10.17707666015625,0.0,0.0,0.0010652644360316954,359.09474133441006,359.6186734185634,5.130581665707517
2026-09-28 19:35:36.669982720,0.07421533203125,-0.15800683593749998,10.189046874999999,0.0,0.0010652644360316954,0.0,359.09449240189485,359.6193423513752,5.130721633537944
2026-09-28 19:35:36.669982720,0.0813974609375,-0.13885449218749998,10.160318359375,0.0010652644360316954,0.0,0.0,359.09495456954085,359.61918424832464,5.131173854590499
2026-09-28 19:35:36.669982720,0.08618554687499999,-0.11970214843749999,10.15313623046875,0.0,0.0,0.0,359.0945672184762,359.6189966205373,5.130710251613135
2026-09-28 19:35:36.669982720,0.043092773437499995,-0.1675830078125,10.198623046875,0.0,0.0,0.0,359.09541401543294,359.61910804499695,5.129936510815628
2026-09-28 19:35:36.685562624,0.08379150390625,-0.17715917968749997,10.18186474609375,0.0,0.0,0.0,359.0955517048564,359.6186164837739,5.130398379532253
2026-09-28 19:35:36.685562624,0.09576171874999999,-0.17715917968749997,10.18186474609375,0.0010652644360316954,0.0,0.0010652644360316954,359.09609143409534,359.61856580801185,5.130852011150187
2026-09-28 19:35:36.685562624,0.05745703125,-0.14603662109374999,10.172288574218749,0.0010652644360316954,0.0010652644360316954,0.0,359.0971486007798,359.6186753399496,5.1312994618488865
2026-09-28 19:35:36.685562624,0.06942724609374999,-0.1675830078125,10.234533691406249,0.0010652644360316954,0.0,0.0,359.09794745066563,359.6187825422213,5.131746603550392
2026-09-28 19:35:36.685562624,0.08618554687499999,-0.19152343749999998,10.222563476562499,0.0,0.0,0.0,359.09740673391127,359.61831637657315,5.130983672918382
2026-09-28 19:35:36.685562624,0.0813974609375,-0.181947265625,10.167500488281249,0.0,0.0,0.0,359.0973258660858,359.618159385843,5.130522006322566
2026-09-28 19:35:36.685562624,0.05745703125,-0.14603662109374999,10.162712402343749,0.0,0.0010652644360316954,0.0,359.09764376369526,359.6189952972794,5.130960684853105
2026-09-28 19:35:36.685562624,0.09576171874999999,-0.18434130859374998,10.1938349609375,0.0,0.0,0.0,359.09722704005475,359.61921373959626,5.130187210607704
2026-09-28 19:35:36.685562624,0.0909736328125,-0.16518896484374998,10.16989453125,0.0,0.0,0.0,359.09725926686264,359.61866554635424,5.130341807252476
2026-09-28 19:35:36.685562624,0.07421533203125,-0.15321875,10.189046874999999,0.0,0.0,0.0,359.09743724981877,359.61892147626344,5.130178744177953
2026-09-28 19:35:36.685562624,0.067033203125,-0.16518896484374998,10.205805175781249,0.0,0.0,0.0010652644360316954,359.0972534313577,359.61905442077193,5.1306263011668305
2026-09-28 19:35:36.685562624,0.06942724609374999,-0.162794921875,10.196229003906248,0.0,-0.0021305288720633907,0.0,359.09669729541207,359.6182447951737,5.1310886711644885
2026-09-28 19:35:36.920009216,0.0813974609375,-0.17476513671875,10.1938349609375,0.0,-0.0021305288720633907,0.0010652644360316954,359.096501529609,359.61775512901056,5.131550785791945
2026-09-28 19:35:36.920009216,0.06942724609374999,-0.15321875,10.229745605468748,0.0,0.0,0.0,359.09599964784024,359.6169217270846,5.132014870060031
2026-09-28 19:35:36.920009216,0.076609375,-0.18912939453125,10.229745605468748,0.0,0.0,0.0,359.0957368932492,359.6173570775133,5.131847925882841
2026-09-28 19:35:36.920009216,0.055062988281249996,-0.12209619140624998,10.1938349609375,0.0,0.0,0.0010652644360316954,359.0949936690033,359.61745623581623,5.132297178633303
2026-09-28 19:35:37.091946752,0.067033203125,-0.14124853515625,10.227351562499999,0.0,0.0,0.0,359.09515809721864,359.61808941994394,5.132432388793067
2026-09-28 19:35:37.343085056,0.05027490234375,-0.1675830078125,10.16989453125,0.0,-0.0021305288720633907,0.0,359.09491197780886,359.6171231250665,5.132899600045862
2026-09-28 19:35:37.343085056,0.0622451171875,-0.17715917968749997,10.18186474609375,0.0,0.0,0.0,359.09520780423605,359.6174113971422,5.133042870887443
2026-09-28 19:35:37.562695680,0.10773193359375,-0.16040087890625,10.184258789062499,0.0,0.0,0.0010652644360316954,359.09558350214104,359.6175332854276,5.133490802091723
2026-09-28 19:35:37.562695680,0.08379150390625,-0.15082470703124998,10.189046874999999,0.0,0.0,0.0,359.09557531447433,359.6172713609468,5.133943986590257
2026-09-28 19:35:37.562695680,0.05266894531249999,-0.14364257812499998,10.189046874999999,0.0,0.0,0.0,359.0964712233579,359.6170655730135,5.133784965564394
2026-09-28 19:35:37.578321408,0.11252001953124999,-0.13167236328124998,10.21059326171875,0.0,0.0,0.0,359.0966151059009,359.6173660806501,5.1336221984757255
2026-09-28 19:35:37.578321408,0.10533789062499999,-0.17476513671875,10.25368603515625,0.0,0.0,0.0,359.0969841047396,359.61701725534607,5.133464670157624
2026-09-28 19:35:37.578321408,0.07421533203125,-0.1484306640625,10.16989453125,0.0,0.0,0.0,359.0963835729792,359.6170451605874,5.133607792570838
2026-09-28 19:35:37.578321408,0.076609375,-0.1675830078125,10.1746826171875,0.0,0.0010652644360316954,0.0,359.0961194687407,359.61762545231613,5.1337459788198965
2026-09-28 19:35:37.593947392,0.08379150390625,-0.14603662109374999,10.229745605468748,0.0,0.0,0.0,359.09657140093674,359.61816825746865,5.13202517684253
2026-09-28 19:35:37.593947392,0.06463916015625,-0.181947265625,10.20819921875,0.0010652644360316954,0.0,0.0010652644360316954,359.09702980332696,359.61829871299227,5.132167519345227
2026-09-28 19:35:37.593947392,0.076609375,-0.16040087890625,10.133983886718749,0.0,-0.0010652644360316954,0.0,359.09606948056364,359.6184759400296,5.132005966092386
2026-09-28 19:35:37.593947392,0.08618554687499999,-0.17237109374999998,10.2417158203125,0.0,0.0,0.0010652644360316954,359.09550601572255,359.6188491964691,5.132759276470838
2026-09-28 19:35:37.593947392,0.0383046875,-0.17237109374999998,10.21538134765625,0.0,0.0,0.0,359.0951248477716,359.6189541328663,5.132902990750998
2026-09-28 19:35:37.593947392,0.05027490234375,-0.16040087890625,10.21538134765625,0.0,0.0010652644360316954,0.0,359.0951195248709,359.6197912910336,5.132736345189398
2026-09-28 19:35:37.593947392,0.043092773437499995,-0.16040087890625,10.15313623046875,0.0,0.0,0.0,359.0949273883077,359.62022695935497,5.133183953501209
2026-09-28 19:35:37.609571584,0.059851074218749994,-0.1292783203125,10.205805175781249,0.0010652644360316954,0.0010652644360316954,0.0,359.0953466656247,359.6207552789418,5.133626758179002
2026-09-28 19:35:37.609571584,0.08379150390625,-0.16518896484374998,10.25368603515625,0.0,0.0,0.0,359.09520334132793,359.6202353090691,5.133168450475158
2026-09-28 19:35:37.609571584,0.0813974609375,-0.15561279296875,10.222563476562499,0.0,0.0,0.0,359.09563153854873,359.6205235186897,5.133310817930345
2026-09-28 19:35:37.812716800,0.08379150390625,-0.19152343749999998,10.1746826171875,0.0,-0.0021305288720633907,0.0,359.09534622984233,359.619804873904,5.133773496002075
2026-09-28 19:35:37.812716800,0.08379150390625,-0.15561279296875,10.217775390624999,0.0,0.0,0.0,359.09552673797185,359.6192283432021,5.133927145358161
2026-09-28 19:35:37.999912704,0.059851074218749994,-0.20588769531249998,10.179470703124998,0.0,0.0,0.0,359.0956960927076,359.6189861116676,5.134073976341712
2026-09-28 19:35:37.999912704,0.07182128906249999,-0.15321875,10.21059326171875,0.0,0.0,0.0,359.09551459654955,359.61863466247286,5.134228101883425
2026-09-28 19:35:37.999912704,0.06463916015625,-0.17237109374999998,10.1938349609375,0.0010652644360316954,0.0,0.0,359.09601156788193,359.6186436193798,5.134370000520653
2026-09-28 19:35:37.999912704,0.09815576171875,-0.14124853515625,10.229745605468748,0.0,0.0,0.0,359.0960104601115,359.61862268884335,5.134212911381921
2026-09-28 19:35:37.999912704,0.07182128906249999,-0.19391748046875,10.1651064453125,-0.0010652644360316954,0.0,0.0010652644360316954,359.09562972112326,359.61874299068586,5.1346596946427425
2026-09-28 19:35:37.999912704,0.08857958984374999,-0.1484306640625,10.2034111328125,0.0010652644360316954,0.0010652644360316954,0.0,359.09541084712333,359.61953329759115,5.1347946311587815
2026-09-28 19:35:38.218898688,0.07421533203125,-0.17476513671875,10.14834814453125,0.0,0.0,0.0,359.0948578646592,359.61959819485105,5.135242700301659
2026-09-28 19:35:38.218898688,0.08379150390625,-0.17476513671875,10.150742187499999,0.0,0.0010652644360316954,0.0,359.09485352801806,359.6204613391838,5.135071245232
2026-09-28 19:35:38.218898688,0.055062988281249996,-0.18912939453125,10.212987304687498,0.0,-0.0010652644360316954,0.0,359.0954052364647,359.61990403508634,5.134917409065573
2026-09-28 19:35:38.423715840,0.06942724609374999,-0.15800683593749998,10.184258789062499,0.0010652644360316954,0.0,0.0010652644360316954,359.09563993789425,359.61985045045327,5.135371018665849
2026-09-28 19:35:38.423715840,0.08379150390625,-0.181947265625,10.2034111328125,0.0,0.0,0.0,359.09573109299043,359.61980006126095,5.135213405584861
2026-09-28 19:35:38.423715840,0.10773193359375,-0.16518896484374998,10.2034111328125,0.0,0.0,0.0,359.09541230321554,359.61995709378994,5.13474656128885
2026-09-28 19:35:38.423715840,0.059851074218749994,-0.1675830078125,10.222563476562499,0.0,0.0,0.0,359.09509020892904,359.62003086209137,5.134889876511718
2026-09-28 19:35:38.439342080,0.09336767578124999,-0.14124853515625,10.201017089843749,0.0,0.0,0.0,359.0951137821584,359.6202369947508,5.135032891994029
2026-09-28 19:35:38.439342080,0.04069873046875,-0.16997705078124997,10.189046874999999,0.0,0.0,0.0,359.0952861956494,359.6196109989649,5.134574386318293
2026-09-28 19:35:38.439342080,0.07182128906249999,-0.17476513671875,10.18665283203125,0.0010652644360316954,0.0,0.0010652644360316954,359.0958226053962,359.61990857388537,5.134718199643482
2026-09-28 19:35:38.439342080,0.07421533203125,-0.1675830078125,10.18186474609375,0.0,0.0010652644360316954,0.0,359.09612649795537,359.62027014544543,5.1345515786311955
2026-09-28 19:35:38.439342080,0.07900341796874999,-0.181947265625,10.201017089843749,0.0010652644360316954,0.0,0.0,359.09603921663484,359.6204951276611,5.1343902714855725
2026-09-28 19:35:38.439342080,0.08618554687499999,-0.14124853515625,10.25847412109375,-0.0010652644360316954,0.0,0.0,359.09496218129016,359.6202107984155,5.134539340529139
2026-09-28 19:35:38.439342080,0.09815576171875,-0.1675830078125,10.1746826171875,0.0,0.0,0.0,359.09483123258667,359.6202268500788,5.134378376529195
2026-09-28 19:35:38.439342080,0.10773193359375,-0.17715917968749997,10.234533691406249,0.0,0.0,0.0010652644360316954,359.0942169140493,359.6205172075356,5.134821858616092
2026-09-28 19:35:38.439342080,0.0622451171875,-0.18912939453125,10.217775390624999,0.0,0.0,0.0,359.09386047396464,359.61982989611556,5.134669952938743
2026-09-28 19:35:38.564336640,0.06942724609374999,-0.15321875,10.17707666015625,0.0,0.0,0.0,359.09397959390674,359.6196575779675,5.135124404957053
2026-09-28 19:35:38.564336640,0.047880859374999994,-0.15321875,10.217775390624999,0.0,0.0,0.0,359.09396841229926,359.6195550498803,5.13496748080833
2026-09-28 19:35:38.564336640,0.08618554687499999,-0.17715917968749997,10.229745605468748,0.0,0.0,0.0,359.09430108701,359.6201413846928,5.1348005420423135
2026-09-28 19:35:38.564336640,0.059851074218749994,-0.18912939453125,10.1938349609375,0.0,0.0,0.0,359.0941047366678,359.6198585128999,5.134949898116463
2026-09-28 19:35:38.564336640,0.06942724609374999,-0.17715917968749997,10.18186474609375,-0.0010652644360316954,0.0,0.0,359.0937861567055,359.6204305546819,5.13478332819406
2026-09-28 19:35:38.658105600,0.06463916015625,-0.15800683593749998,10.162712402343749,0.0021305288720633907,0.0010652644360316954,0.0,359.0942592816958,359.62078764382284,5.1346175061929005
2026-09-28 19:35:38.783534080,0.08618554687499999,-0.15321875,10.18186474609375,0.0,0.0,0.0,359.09454456228224,359.62104305375635,5.134760870877394
2026-09-28 19:35:38.893671936,0.05266894531249999,-0.16040087890625,10.1938349609375,0.0,-0.0010652644360316954,0.0,359.0943377067237,359.6205345258039,5.135218266621813
2026-09-28 19:35:38.893671936,0.06942724609374999,-0.16518896484374998,10.162712402343749,0.0010652644360316954,0.0,0.0,359.09461376643833,359.6212554617113,5.135356854820786
2026-09-28 19:35:38.909298688,0.055062988281249996,-0.15800683593749998,10.1938349609375,0.0010652644360316954,0.0,0.0,359.09472686304844,359.62149132229627,5.135194186517751
2026-09-28 19:35:38.909298688,0.07421533203125,-0.16040087890625,10.20819921875,0.0,0.0,0.0,359.0945691467002,359.62149180188663,5.135033335429359
2026-09-28 19:35:38.909298688,0.0813974609375,-0.18912939453125,10.14356005859375,0.0,0.0,0.0,359.0943050916481,359.6215317569862,5.134871166221043
2026-09-28 19:35:38.924923392,0.059851074218749994,-0.18434130859374998,10.2034111328125,0.0,0.0,0.0,359.09340354634435,359.62173547726303,5.135321515357381
2026-09-28 19:35:38.924923392,0.09815576171875,-0.13646044921875,10.22016943359375,0.0010652644360316954,0.0,0.0,359.09397786372995,359.62139787137767,5.134864464357037
2026-09-28 19:35:38.924923392,0.059851074218749994,-0.18912939453125,10.20819921875,0.0,-0.0010652644360316954,0.0010652644360316954,359.0940145180742,359.6214868657054,5.135310601503516
2026-09-28 19:35:38.924923392,0.0813974609375,-0.19152343749999998,10.21059326171875,0.0010652644360316954,0.0,0.0010652644360316954,359.09431890410525,359.62101406608156,5.135463501482504
2026-09-28 19:35:38.924923392,0.10533789062499999,-0.181947265625,10.212987304687498,0.0,0.0,0.0010652644360316954,359.09430091561063,359.62148741728413,5.135907174532151
2026-09-28 19:35:38.940549120,0.1005498046875,-0.19152343749999998,10.21538134765625,0.0,0.0,0.0,359.0945324057194,359.6215167919745,5.134957630007564
2026-09-28 19:35:38.940549120,0.06463916015625,-0.18912939453125,10.198623046875,0.0,0.0,0.0,359.09416277324857,359.62162869768883,5.135101236608238
2026-09-28 19:35:38.940549120,0.05027490234375,-0.16997705078124997,10.179470703124998,0.0,0.0,0.0,359.0941449742549,359.62130507142814,5.135559334072251
2026-09-28 19:35:38.940549120,0.0909736328125,-0.13885449218749998,10.155530273437499,0.0,-0.0010652644360316954,0.0,359.0930617819985,359.62069043963214,5.13541302430141
2026-09-28 19:35:38.940549120,0.0813974609375,-0.16518896484374998,10.155530273437499,0.0010652644360316954,0.0,0.0,359.0934866410194,359.620155043469,5.134954906863053
2026-09-28 19:35:38.940549120,0.08379150390625,-0.13646044921875,10.212987304687498,0.0,0.0,0.0,359.092779659343,359.62061264105023,5.134483639306928
2026-09-28 19:35:38.940549120,0.067033203125,-0.17237109374999998,10.21538134765625,-0.0010652644360316954,-0.0010652644360316954,0.0,359.09273260084876,359.62011911150194,5.1340246747959934
2026-09-28 19:35:38.940549120,0.05266894531249999,-0.13646044921875,10.167500488281249,0.0,0.0010652644360316954,0.0,359.0930311184868,359.6203613050376,5.133862767582758
2026-09-28 19:35:38.940549120,0.08379150390625,-0.17237109374999998,10.20819921875,0.0,-0.0010652644360316954,0.0,359.09264115203104,359.6204441229698,5.134009353915721
2026-09-28 19:35:38.940549120,0.03112255859375,-0.16518896484374998,10.167500488281249,0.0010652644360316954,0.0,0.0,359.0926865946355,359.62071878563637,5.133542035284077
2026-09-28 19:35:38.940549120,0.06942724609374999,-0.15321875,10.201017089843749,0.0,0.0,0.0,359.0927317462717,359.62050189220565,5.133084453203407
2026-09-28 19:35:38.940549120,0.05266894531249999,-0.17715917968749997,10.145954101562499,0.0,0.0,0.0,359.09257632054937,359.62041073012125,5.132926473025482
2026-09-28 19:35:38.940549120,0.055062988281249996,-0.16997705078124997,10.2034111328125,0.0021305288720633907,0.0,0.0,359.09324772661427,359.6203743200994,5.133073976610848
2026-09-28 19:35:38.956171776,0.07900341796874999,-0.162794921875,10.234533691406249,0.0,0.0,0.0,359.09359358289765,359.62109629840586,5.133212183332168
2026-09-28 19:35:38.956171776,0.067033203125,-0.162794921875,10.201017089843749,0.0,0.0,0.0,359.0937773508656,359.6209739492207,5.1336640754375615
2026-09-28 19:35:38.956171776,0.05027490234375,-0.15082470703124998,10.22495751953125,0.0021305288720633907,0.0,0.0,359.0946256040903,359.6209606374871,5.133500612495727
2026-09-28 19:35:38.956171776,0.07900341796874999,-0.1484306640625,10.1938349609375,0.0,-0.0010652644360316954,0.0,359.09446804331446,359.6206698329602,5.133347340332188
2026-09-28 19:35:38.956171776,0.06942724609374999,-0.15321875,10.217775390624999,0.0,0.0,0.0010652644360316954,359.0945531154998,359.6202470596123,5.134109908723918
2026-09-28 19:35:38.987423488,0.076609375,-0.124490234375,10.19144091796875,0.0,0.0,0.0,359.09398463584455,359.6211054402874,5.133632983730105
2026-09-28 19:35:38.987423488,0.1149140625,-0.17476513671875,10.227351562499999,0.0,0.0,-0.0010652644360316954,359.0940254576325,359.6209356813775,5.132863297230838
2026-09-28 19:35:38.987423488,0.05745703125,-0.19152343749999998,10.201017089843749,0.0,0.0,0.0,359.09408576645484,359.62046443761193,5.132095541333914
2026-09-28 19:35:38.987423488,0.059851074218749994,-0.15321875,10.179470703124998,0.0010652644360316954,0.0,0.0,359.0940510790141,359.62053336136967,5.131938711077795
2026-09-28 19:35:39.003045120,0.0622451171875,-0.17476513671875,10.155530273437499,0.0,0.0,0.0,359.094194528337,359.6204007165499,5.13178071375477
2026-09-28 19:35:39.003045120,0.15082470703124998,-0.16040087890625,10.229745605468748,0.0,0.0,0.0,359.09381706589227,359.61996722966364,5.131934089006667
2026-09-28 19:35:39.003045120,0.059851074218749994,-0.16518896484374998,10.205805175781249,0.0,0.0,0.0010652644360316954,359.0937356403471,359.6189465952013,5.1323925885407276
2026-09-28 19:35:39.003045120,0.06463916015625,-0.16518896484374998,10.1651064453125,0.0,-0.0010652644360316954,0.0,359.0931740597441,359.61860149518344,5.132850299686226
2026-09-28 19:35:39.003045120,0.07182128906249999,-0.14364257812499998,10.2034111328125,0.0,0.0,0.0,359.092671903023,359.6183543090069,5.132694539743572
2026-09-28 19:35:39.003045120,0.059851074218749994,-0.17476513671875,10.160318359375,0.0,0.0,0.0,359.09302921343186,359.6184172778115,5.132835335295559
2026-09-28 19:35:39.003045120,0.043092773437499995,-0.17715917968749997,10.21538134765625,0.0,0.0,0.0,359.09321533928926,359.61867358084606,5.132672227461855
2026-09-28 19:35:39.018676736,0.0622451171875,-0.18434130859374998,10.160318359375,0.0,0.0,0.0,359.0930721816537,359.6194258077857,5.132811554468637
2026-09-28 19:35:39.018676736,0.11012597656249999,-0.17955322265624998,10.22016943359375,0.0,0.0,0.0,359.09262451848275,359.61968103175724,5.132650571772374
2026-09-28 19:35:39.018676736,0.124490234375,-0.18673535156249998,10.22016943359375,0.0,0.0,-0.0010652644360316954,359.09299530743994,359.6192792028879,5.1318828261437615
2026-09-28 19:35:39.018676736,0.028728515625,-0.18434130859374998,10.2034111328125,0.0,0.0010652644360316954,0.0,359.09286780950725,359.61959694598295,5.13141184393101
2026-09-28 19:35:39.018676736,0.08379150390625,-0.15800683593749998,10.21059326171875,0.0010652644360316954,0.0,0.0,359.09305975392834,359.62007021507526,5.131555711913524
2026-09-28 19:35:39.034296320,0.04548681640625,-0.14124853515625,10.22016943359375,0.0,0.0,-0.0010652644360316954,359.0931076503632,359.6199116679234,5.1304828255065
2026-09-28 19:35:39.034296320,0.07900341796874999,-0.201099609375,10.222563476562499,0.0,0.0,0.0,359.0937967176199,359.61935595653506,5.130332859548295
2026-09-28 19:35:39.034296320,0.1005498046875,-0.17237109374999998,10.172288574218749,0.0,0.0,0.0,359.0929075910209,359.6194247565058,5.130172757612552
2026-09-28 19:35:39.034296320,0.0909736328125,-0.15561279296875,10.172288574218749,0.0,0.0,0.0,359.0932930708603,359.61966076347846,5.129700445711498
2026-09-28 19:35:39.034296320,0.0813974609375,-0.13885449218749998,10.205805175781249,0.0,-0.0010652644360316954,0.0010652644360316954,359.09323594738333,359.6189618404082,5.1304688629303845
2026-09-28 19:35:39.034296320,0.08857958984374999,-0.17476513671875,10.2321396484375,0.0,0.0,0.0,359.0934237894333,359.6188732512421,5.130310557715929
2026-09-28 19:35:39.034296320,0.06942724609374999,-0.13646044921875,10.22495751953125,0.0,0.0,-0.0010652644360316954,359.0934281898691,359.6188734881004,5.129843468071591
2026-09-28 19:35:39.034296320,0.10773193359375,-0.17237109374999998,10.263262207031248,0.0,0.0,0.0,359.0932063278636,359.6191361202947,5.129986179235671
2026-09-28 19:35:39.034296320,0.08857958984374999,-0.1484306640625,10.217775390624999,0.0,0.0,0.0,359.0932286007581,359.6188645772169,5.129828998922343
2026-09-28 19:35:39.034296320,0.04548681640625,-0.14364257812499998,10.212987304687498,0.0,0.0,0.0,359.09267339111983,359.61830506804495,5.1299814901226535
2026-09-28 19:35:39.034296320,0.08857958984374999,-0.14603662109374999,10.179470703124998,0.0,0.0010652644360316954,0.0,359.09300603424873,359.6188004849988,5.129812493701581
2026-09-28 19:35:39.034296320,0.1149140625,-0.16040087890625,10.1938349609375,0.0,0.0,0.0010652644360316954,359.09309602101655,359.6185679496031,5.130570302653274
2026-09-28 19:35:39.034296320,0.04548681640625,-0.18434130859374998,10.198623046875,0.0010652644360316954,0.0,0.0,359.09334749068137,359.61849840502055,5.130713841401435
2026-09-28 19:35:39.034296320,0.07182128906249999,-0.15082470703124998,10.1938349609375,0.0,0.0,0.0,359.09328064122604,359.61913832616074,5.1305475030938545
2026-09-28 19:35:39.034296320,0.06942724609374999,-0.15800683593749998,10.229745605468748,0.0,-0.0010652644360316954,0.0,359.092618127088,359.61865659759707,5.130700722237479
2026-09-28 19:35:39.034296320,0.08857958984374999,-0.17715917968749997,10.184258789062499,0.0,0.0,0.0,359.09306401093255,359.6186237602629,5.130542727169485
2026-09-28 19:35:39.034296320,0.07421533203125,-0.17237109374999998,10.138771972656249,0.0,0.0,0.0,359.093034039654,359.61914859049205,5.1306812285992835
2026-09-28 19:35:39.034296320,0.09336767578124999,-0.16997705078124997,10.22495751953125,0.0,0.0,0.0,359.09301409137976,359.61872449719436,5.130529175999281
2026-09-28 19:35:39.034296320,0.07182128906249999,-0.1675830078125,10.222563476562499,0.0,0.0010652644360316954,0.0,359.0932197871707,359.61907048020714,5.130058023293238
2026-09-28 19:35:39.034296320,0.06463916015625,-0.16518896484374998,10.1938349609375,0.0,0.0,0.0,359.09319549550673,359.6193053628276,5.130201402811406
2026-09-28 19:35:39.034296320,0.08618554687499999,-0.17955322265624998,10.179470703124998,0.0010652644360316954,0.0,0.0,359.09397286365476,359.6195899145991,5.130343467036909
2026-09-28 19:35:39.034296320,0.076609375,-0.201099609375,10.196229003906248,0.0,0.0,0.0,359.09390397832266,359.6194643491329,5.130491948295503
2026-09-28 19:35:39.034296320,0.06942724609374999,-0.15800683593749998,10.184258789062499,0.0,0.0,0.0010652644360316954,359.0940475551831,359.61898114476327,5.130645944141429
2026-09-28 19:35:39.034296320,0.076609375,-0.14124853515625,10.22016943359375,0.0010652644360316954,0.0,0.0,359.09454240700535,359.6187955876772,5.130184528768446
2026-09-28 19:35:39.034296320,0.09336767578124999,-0.1484306640625,10.227351562499999,0.0,-0.0010652644360316954,0.0,359.09474166504384,359.61868874005916,5.1297210009448895
2026-09-28 19:35:39.034296320,0.043092773437499995,-0.18912939453125,10.172288574218749,0.0,0.0,0.0,359.0946800609804,359.61861674547333,5.129559529579219
2026-09-28 19:35:39.034296320,0.09815576171875,-0.16518896484374998,10.145954101562499,0.0,0.0,0.0010652644360316954,359.0948798408521,359.619083925036,5.130313760829317
2026-09-28 19:35:39.034296320,0.043092773437499995,-0.16518896484374998,10.172288574218749,0.0,0.0,0.0,359.0946073196093,359.618574325613,5.130461487671899
2026-09-28 19:35:39.034296320,0.08857958984374999,-0.13885449218749998,10.205805175781249,0.0,0.0,0.0,359.09524851835283,359.61835546000316,5.130614082512389
2026-09-28 19:35:39.034296320,0.07900341796874999,-0.16997705078124997,10.1938349609375,0.0,0.0,0.0,359.0951415703959,359.61837522293234,5.130450864690565
2026-09-28 19:35:39.034296320,0.076609375,-0.18673535156249998,10.18665283203125,0.0,-0.0010652644360316954,0.0,359.09487746401135,359.61814267802407,5.130293568617891
2026-09-28 19:35:39.034296320,0.06942724609374999,-0.181947265625,10.24889794921875,0.0,0.0,0.0,359.095084062233,359.617415469881,5.13075707427244
2026-09-28 19:35:39.034296320,0.09336767578124999,-0.13885449218749998,10.21059326171875,0.0,-0.0021305288720633907,0.0010652644360316954,359.0947912240695,359.61678990478293,5.131525015919709
2026-09-28 19:35:39.034296320,0.0813974609375,-0.17237109374999998,10.167500488281249,0.0,0.0,0.0,359.0949323273145,359.6168559459399,5.131667333974701
2026-09-28 19:35:39.034296320,0.05027490234375,-0.1675830078125,10.20819921875,0.0,-0.0010652644360316954,0.0,359.09429044755746,359.6163246870558,5.131820450582391
2026-09-28 19:35:39.034296320,0.043092773437499995,-0.15321875,10.160318359375,0.0010652644360316954,0.0,0.0,359.0943102703845,359.6160775371429,5.132273524604513
2026-09-28 19:35:39.034296320,0.10533789062499999,-0.16040087890625,10.14834814453125,0.0,0.0,0.0,359.09447733385406,359.6166682998353,5.132105763123626
2026-09-28 19:35:39.034296320,0.059851074218749994,-0.201099609375,10.172288574218749,0.0,0.0,0.0,359.09450924319333,359.616568395695,5.131943634133704
2026-09-28 19:35:39.034296320,0.10533789062499999,-0.16518896484374998,10.22495751953125,0.0,0.0,0.0010652644360316954,359.0943434627101,359.6163872585239,5.132398037575351
2026-09-28 19:35:39.034296320,0.0909736328125,-0.181947265625,10.198623046875,0.0,0.0010652644360316954,0.0,359.0944758245047,359.6169198357049,5.13253085875579
2026-09-28 19:35:39.034296320,0.0622451171875,-0.16997705078124997,10.18665283203125,0.0,0.0,0.0,359.09405192544847,359.616623736061,5.132374559907379
2026-09-28 19:35:39.034296320,0.076609375,-0.15561279296875,10.18186474609375,0.0,0.0,0.0,359.0937558000874,359.6163174736123,5.132527372904152
2026-09-28 19:35:39.034296320,0.0909736328125,-0.14364257812499998,10.19144091796875,0.0,0.0010652644360316954,0.0010652644360316954,359.0941525411002,359.6168677488567,5.13297027301703
2026-09-28 19:35:39.034296320,0.059851074218749994,-0.17237109374999998,10.1268017578125,0.0,0.0010652644360316954,0.0,359.0938364374565,359.6174612006154,5.132796797959352
2026-09-28 19:35:39.034296320,0.06942724609374999,-0.17476513671875,10.14834814453125,0.0,0.0,0.0,359.09387922658277,359.6178005486191,5.1329397306835505
2026-09-28 19:35:39.034296320,0.09336767578124999,-0.1675830078125,10.167500488281249,0.0,0.0,0.0,359.0938076440149,359.61799567355695,5.133083394510026
2026-09-28 19:35:39.049920768,0.09336767578124999,-0.13646044921875,10.17707666015625,0.0,0.0,0.0,359.0941299185302,359.61732028629166,5.1335412555333
2026-09-28 19:35:39.049920768,0.0813974609375,-0.17237109374999998,10.22495751953125,0.0,0.0,0.0,359.09383803740656,359.6177860927475,5.133069374667864
2026-09-28 19:35:39.049920768,0.06463916015625,-0.14124853515625,10.172288574218749,0.0,0.0,0.0,359.0937806378139,359.6173261643159,5.132612414522754
2026-09-28 19:35:39.049920768,0.06463916015625,-0.15561279296875,10.2321396484375,0.0,0.0,0.0,359.0932207829319,359.6176235668832,5.132448205735106
2026-09-28 19:35:39.049920768,0.07421533203125,-0.16040087890625,10.138771972656249,0.0010652644360316954,0.0010652644360316954,0.0010652644360316954,359.0937504783125,359.6183639896339,5.132582477463813
2026-09-28 19:35:39.065544960,0.0909736328125,-0.14364257812499998,10.150742187499999,0.0,0.0,0.0010652644360316954,359.0939516874526,359.6184018341304,5.1330315141979215
2026-09-28 19:35:39.065544960,0.09815576171875,-0.162794921875,10.160318359375,0.0,0.0,0.0,359.0941833405062,359.61816955780176,5.1337882658902725
2026-09-28 19:35:39.065544960,0.06942724609374999,-0.18912939453125,10.201017089843749,0.0,0.0,0.0,359.09389067517935,359.6181884648052,5.133626273642636
2026-09-28 19:35:39.081169408,0.0813974609375,-0.16997705078124997,10.179470703124998,0.0,0.0,0.0,359.0938261180563,359.6184782496897,5.133769897265356
2026-09-28 19:35:39.081169408,0.0909736328125,-0.181947265625,10.196229003906248,0.0,0.0,0.0,359.0934901495808,359.6181633607539,5.133613106283109
2026-09-28 19:35:39.081169408,0.0909736328125,-0.124490234375,10.227351562499999,-0.0010652644360316954,0.0,0.0010652644360316954,359.0926513578494,359.61816574714084,5.134061027426822
2026-09-28 19:35:39.081169408,0.07421533203125,-0.17955322265624998,10.16989453125,0.0,-0.0010652644360316954,0.0,359.09234616854786,359.6180225720338,5.134512222074085
2026-09-28 19:35:39.081169408,0.04548681640625,-0.16518896484374998,10.2034111328125,0.0,-0.0010652644360316954,0.0,359.0921975958003,359.6173209001188,5.134976105534993
2026-09-28 19:35:39.096793856,0.01675830078125,-0.14124853515625,10.160318359375,0.0,0.0,0.0,359.09238005369366,359.6142726912065,5.136352213417839
2026-09-28 19:35:39.096793856,0.09576171874999999,-0.15082470703124998,10.234533691406249,0.0,-0.0010652644360316954,0.0,359.09091675145015,359.61516994856584,5.138338352972447
2026-09-28 19:35:39.096793856,0.055062988281249996,-0.1963115234375,10.196229003906248,0.0,0.0,0.0,359.09090850079286,359.6148818463194,5.138486433486088
2026-09-28 19:35:39.096793856,0.0909736328125,-0.15561279296875,10.21059326171875,0.0,0.0,0.0,359.0907693843989,359.61466861002134,5.13833035012452
2026-09-28 19:35:39.112418048,0.06463916015625,-0.13646044921875,10.167500488281249,0.0,-0.0010652644360316954,0.0,359.09061591345323,359.61417201406607,5.137867218583274
2026-09-28 19:35:39.128042496,0.0909736328125,-0.13406640625,10.234533691406249,0.0,-0.0010652644360316954,0.0010652644360316954,359.0902575518465,359.61369016259147,5.138323610060289
2026-09-28 19:35:39.128042496,0.059851074218749994,-0.16997705078124997,10.18186474609375,0.0,0.0021305288720633907,0.0010652644360316954,359.0910311210762,359.61447102361996,5.138761188519603
2026-09-28 19:35:39.128042496,0.0813974609375,-0.18434130859374998,10.229745605468748,0.0,0.0,0.0,359.0908059750674,359.614194834069,5.1389155348241
2026-09-28 19:35:39.128042496,0.07900341796874999,-0.15321875,10.229745605468748,0.0,0.0,0.0,359.0892405212382,359.61718879407624,5.141332694760461
2026-09-28 19:35:39.128042496,0.059851074218749994,-0.18673535156249998,10.256080078124999,0.0,0.0,0.0010652644360316954,359.0891153623561,359.61729433928457,5.141474818585015
2026-09-28 19:35:39.128042496,0.07900341796874999,-0.1675830078125,10.201017089843749,0.0,0.0,0.0,359.0886408907328,359.61711103243533,5.141623989913731
2026-09-28 19:35:39.128042496,0.08857958984374999,-0.17715917968749997,10.1651064453125,0.0,-0.0010652644360316954,0.0,359.08877767898116,359.61655140092006,5.141775877866407
2026-09-28 19:35:39.128042496,0.08857958984374999,-0.17955322265624998,10.11483154296875,-0.0021305288720633907,0.0,0.0,359.084041575222,359.6220409703172,5.141844976182489
2026-09-28 19:35:39.128042496,0.043092773437499995,-0.14603662109374999,10.17707666015625,0.0021305288720633907,0.0,0.0,359.08409065532794,359.62247929237697,5.141374795735948
2026-09-28 19:35:39.128042496,0.05745703125,-0.16040087890625,10.167500488281249,0.0021305288720633907,0.0,0.0,359.0849006352431,359.62336157182034,5.141206655831885
2026-09-28 19:35:39.128042496,0.067033203125,-0.17715917968749997,10.3853583984375,0.0,-0.0010652644360316954,0.0,359.08551300375024,359.62261187963077,5.141667548051415
2026-09-28 19:35:39.128042496,0.07182128906249999,-0.18434130859374998,10.100467285156249,0.0,0.0010652644360316954,0.0,359.08508649380565,359.62382380891836,5.141489815902845
2026-09-28 19:35:39.128042496,0.08857958984374999,-0.17715917968749997,10.196229003906248,0.0010652644360316954,-0.0010652644360316954,0.0010652644360316954,359.08518028456876,359.6232463667315,5.141644159510235
2026-09-28 19:35:39.128042496,0.06463916015625,-0.14364257812499998,10.1651064453125,0.0,0.0,0.0,359.085366746381,359.6225439326027,5.14179790091133
2026-09-28 19:35:39.128042496,0.055062988281249996,-0.16040087890625,10.3039609375,0.0,0.0,0.0,359.08546303207726,359.6231831480904,5.141930706008323
2026-09-28 19:35:39.128042496,0.0813974609375,-0.19391748046875,10.160318359375,-0.0010652644360316954,-0.0010652644360316954,0.0,359.0844523250946,359.6232793473866,5.142079329776811
2026-09-28 19:35:39.128042496,0.076609375,-0.162794921875,10.2321396484375,0.0010652644360316954,0.0,0.0,359.08490053430955,359.6232030742179,5.142533638385351
2026-09-28 19:35:39.128042496,0.05745703125,-0.14364257812499998,10.236927734375,0.0,0.0,0.0,359.0856032083076,359.62256028283923,5.142075739148043
2026-09-28 19:35:39.128042496,0.076609375,-0.17237109374999998,10.205805175781249,0.0,0.0,0.0,359.08525473457445,359.6232165226625,5.14160214667821
2026-09-28 19:35:39.128042496,0.076609375,-0.1292783203125,10.124407714843748,0.0,0.0,0.0,359.08473730885163,359.62357414018595,5.14173979380049
2026-09-28 19:35:39.128042496,0.10773193359375,-0.16518896484374998,10.212987304687498,0.0,0.0,0.0,359.08502611532526,359.62334662855545,5.141885882777214
2026-09-28 19:35:39.128042496,0.0622451171875,-0.17476513671875,10.2321396484375,0.0,0.0,0.0,359.08512773142456,359.6228538865555,5.141728201980872
2026-09-28 19:35:39.128042496,0.08379150390625,-0.17476513671875,10.222563476562499,0.0,0.0,0.0,359.08475938066766,359.6227700469253,5.141571583480982
2026-09-28 19:35:39.128042496,0.08379150390625,-0.16518896484374998,10.21538134765625,0.0,0.0,0.0,359.08469800478207,359.6223022924126,5.141419847362877
2026-09-28 19:35:39.128042496,0.06463916015625,-0.17955322265624998,10.22016943359375,0.0010652644360316954,0.0,0.0,359.08468165602847,359.62231521862196,5.1412580571924895
2026-09-28 19:35:39.128042496,0.076609375,-0.15082470703124998,10.222563476562499,0.0,0.0,0.0,359.0846479187918,359.6219999970031,5.141411168767343
2026-09-28 19:35:39.128042496,0.06463916015625,-0.13167236328124998,10.196229003906248,0.0021305288720633907,0.0,0.0,359.08548117455825,359.62215371109875,5.140944708507726
2026-09-28 19:35:39.128042496,0.047880859374999994,-0.16997705078124997,10.172288574218749,0.0,0.0010652644360316954,0.0,359.08575668359777,359.62271151931515,5.141081150633393
2026-09-28 19:35:39.128042496,0.07900341796874999,-0.16518896484374998,10.201017089843749,0.0,0.0,0.0010652644360316954,359.0844486841723,359.6212856001876,5.142300793744616
2026-09-28 19:35:39.128042496,0.0813974609375,-0.17476513671875,10.1938349609375,0.0,-0.0010652644360316954,0.0,359.0849100232105,359.6207377132197,5.141842465024435
2026-09-28 19:35:39.128042496,0.08857958984374999,-0.1484306640625,10.22016943359375,0.0,-0.0010652644360316954,0.0,359.0839052373054,359.6202409934556,5.141385794107025
2026-09-28 19:35:39.128042496,0.055062988281249996,-0.17476513671875,10.21059326171875,0.0010652644360316954,0.0,0.0,359.08449370320324,359.6196840670459,5.141837079007111
2026-09-28 19:35:39.128042496,0.055062988281249996,-0.1963115234375,10.172288574218749,0.0,0.0010652644360316954,0.0,359.08535729138697,359.6199340917621,5.139587628091269
2026-09-28 19:35:39.128042496,0.09336767578124999,-0.1675830078125,10.21059326171875,0.0,0.0021305288720633907,0.0,359.0824012814426,359.6218087198689,5.141410689824038
2026-09-28 19:35:39.128042496,0.05266894531249999,-0.1484306640625,10.19144091796875,0.0,0.0,0.0010652644360316954,359.0824060289198,359.62168457796975,5.141858993377336
2026-09-28 19:35:39.128042496,0.059851074218749994,-0.1484306640625,10.150742187499999,0.0,0.0,0.0,359.0809604245977,359.6200820455995,5.1475116588305685
2026-09-28 19:35:39.128042496,0.08857958984374999,-0.16040087890625,10.1746826171875,0.0,0.0,0.0,359.08055085617343,359.62015862889905,5.147045249650424
2026-09-28 19:35:39.128042496,0.08618554687499999,-0.17715917968749997,10.19144091796875,0.0,0.0,0.0,359.07972229486853,359.62028275848706,5.147187762697623
2026-09-28 19:35:39.143669504,0.076609375,-0.19152343749999998,10.205805175781249,0.0010652644360316954,0.0,0.0,359.0798989837222,359.62043674090086,5.147331787167043
2026-09-28 19:35:39.143669504,0.043092773437499995,-0.17476513671875,10.155530273437499,0.0,0.0,0.0,359.0801755049171,359.62034156912483,5.147785164637087
2026-09-28 19:35:39.143669504,0.04069873046875,-0.162794921875,10.184258789062499,0.0,0.0,0.0,359.08008359850487,359.62014903665755,5.147936750935659
2026-09-28 19:35:39.143669504,0.1005498046875,-0.181947265625,10.22495751953125,0.0010652644360316954,0.0010652644360316954,0.0,359.0802801263276,359.6207852423912,5.147770683798246
2026-09-28 19:35:39.143669504,0.076609375,-0.16040087890625,10.155530273437499,0.0,0.0,0.0,359.0807733435678,359.62101127107064,5.147609449579519
2026-09-28 19:35:39.143669504,0.059851074218749994,-0.15800683593749998,10.1651064453125,0.0,0.0,0.0,359.08105755275915,359.6207085866457,5.147762583836368
2026-09-28 19:35:39.143669504,0.04548681640625,-0.1292783203125,10.21538134765625,0.0,0.0,0.0010652644360316954,359.0808797157613,359.6199895782649,5.148224646991773
2026-09-28 19:35:39.143669504,0.09336767578124999,-0.162794921875,10.22495751953125,0.0,0.0,0.0,359.0811988156512,359.619972763688,5.147760489509879
2026-09-28 19:35:39.143669504,0.08857958984374999,-0.17715917968749997,10.20819921875,0.0,0.0,0.0,359.0808049964486,359.62024745485166,5.147904239320228
2026-09-28 19:35:39.143669504,0.05266894531249999,-0.15082470703124998,10.22016943359375,0.0,-0.0010652644360316954,0.0,359.08052524743425,359.6194586236229,5.148061918682474
2026-09-28 19:35:39.143669504,0.05266894531249999,-0.15561279296875,10.21059326171875,0.0,-0.0010652644360316954,0.0,359.080924867843,359.61929668620115,5.147604098638877
2026-09-28 19:35:39.143669504,0.08618554687499999,-0.162794921875,10.198623046875,0.0,0.0,0.0010652644360316954,359.0808926919768,359.61924896094934,5.148360667605522
2026-09-28 19:35:39.143669504,0.0813974609375,-0.14364257812499998,10.16989453125,0.0010652644360316954,0.0,0.0,359.0815142618355,359.619278730337,5.148198631753745
2026-09-28 19:35:39.159292672,0.06942724609374999,-0.16518896484374998,10.184258789062499,0.0,-0.0010652644360316954,0.0,359.08075945002145,359.6192830490474,5.148347630613604
2026-09-28 19:35:39.159292672,0.0813974609375,-0.16518896484374998,10.1651064453125,0.0,-0.0010652644360316954,0.0,359.08090065918634,359.6189054788052,5.148499655289387
2026-09-28 19:35:39.159292672,0.0622451171875,-0.17715917968749997,10.22016943359375,0.0,0.0,0.0,359.08098541643534,359.6191967055225,5.148942566013677
2026-09-28 19:35:39.159292672,0.055062988281249996,-0.17476513671875,10.141166015624998,0.0,0.0,0.0,359.0813118227551,359.6191038747114,5.14939562916304
2026-09-28 19:35:39.174917376,0.07182128906249999,-0.162794921875,10.201017089843749,-0.0010652644360316954,-0.0010652644360316954,0.0010652644360316954,359.0803332331868,359.6190485452488,5.149849245028005
2026-09-28 19:35:39.174917376,0.08618554687499999,-0.14364257812499998,10.201017089843749,0.0,0.0,0.0,359.0801331962929,359.6178819740268,5.149677584430438
2026-09-28 19:35:39.174917376,0.0335166015625,-0.16040087890625,10.160318359375,0.0,0.0,0.0,359.0803970153455,359.6174823263755,5.149828801128724
2026-09-28 19:35:39.174917376,0.076609375,-0.17715917968749997,10.234533691406249,0.0010652644360316954,0.0,0.0,359.0795635757475,359.61848226846183,5.150305520276952
2026-09-28 19:35:39.206853632,0.05266894531249999,-0.18434130859374998,10.234533691406249,0.0,-0.0010652644360316954,0.0,359.079773439649,359.6178217550402,5.149853650668548
2026-09-28 19:35:39.207872768,0.067033203125,-0.15561279296875,10.184258789062499,0.0,0.0,0.0,359.0799638917442,359.617789208092,5.1496973423830985
2026-09-28 19:35:39.207872768,0.09336767578124999,-0.16040087890625,10.18665283203125,0.0,0.0,0.0,359.08046268683256,359.61737408904696,5.149848995130996
2026-09-28 19:35:39.208892160,0.059851074218749994,-0.15800683593749998,10.1746826171875,0.0,0.0,0.0,359.08067316710856,359.61712877429795,5.149690502161259
2026-09-28 19:35:39.221741312,0.07421533203125,-0.14124853515625,10.227351562499999,0.0,0.0010652644360316954,0.0,359.0812103881956,359.6175640226826,5.149827261242413
2026-09-28 19:35:39.221741312,0.047880859374999994,-0.18434130859374998,10.2321396484375,0.0021305288720633907,0.0,-0.0010652644360316954,359.08036146230233,359.61737281009727,5.1510895013111835
2026-09-28 19:35:39.221741312,0.10294384765624999,-0.162794921875,10.22495751953125,0.0,0.0,0.0,359.0801930449463,359.6174948700895,5.1506236527452725
2026-09-28 19:35:39.221741312,0.067033203125,-0.14364257812499998,10.189046874999999,0.0,0.0,0.0,359.0807135641945,359.61717958538657,5.150160110660456
2026-09-28 19:35:39.221741312,0.07182128906249999,-0.14603662109374999,10.198623046875,0.0,-0.0010652644360316954,-0.0010652644360316954,359.0802216006798,359.61733659853263,5.151404086445797
2026-09-28 19:35:39.221741312,0.07900341796874999,-0.12209619140624998,10.234533691406249,0.0,0.0,0.0,359.0801761274506,359.61727266592396,5.151857538276111
2026-09-28 19:35:39.221741312,0.076609375,-0.15561279296875,10.227351562499999,0.0,0.0,0.0010652644360316954,359.0803730586273,359.6172089303132,5.152919682127367
2026-09-28 19:35:39.221741312,0.07182128906249999,-0.15561279296875,10.22016943359375,0.0,-0.0010652644360316954,0.0,359.08006838968845,359.61674488469833,5.153070646842516
2026-09-28 19:35:39.221741312,0.08618554687499999,-0.15082470703124998,10.2417158203125,0.0,0.0,0.0,359.08041686643816,359.616939999926,5.152908361936602
2026-09-28 19:35:39.221741312,0.09336767578124999,-0.16040087890625,10.256080078124999,0.0,0.0010652644360316954,0.0,359.08060477136695,359.61720719121496,5.153045330293632
2026-09-28 19:35:39.221741312,0.05266894531249999,-0.14603662109374999,10.179470703124998,0.0,0.0010652644360316954,0.0,359.08066278228665,359.6178326366145,5.153178245229138
2026-09-28 19:35:39.221741312,0.047880859374999994,-0.14364257812499998,10.196229003906248,0.0010652644360316954,0.0010652644360316954,0.0,359.08155585155407,359.61885409588876,5.153614879897162
2026-09-28 19:35:39.221741312,0.09576171874999999,-0.162794921875,10.244109863281249,-0.0010652644360316954,0.0,0.0,359.0814294551061,359.6191346631229,5.153451736850143
2026-09-28 19:35:39.221741312,0.07421533203125,-0.1675830078125,10.205805175781249,0.0,0.0010652644360316954,0.0,359.0815625015324,359.6191530386775,5.153288922472531
2026-09-28 19:35:39.221741312,0.055062988281249996,-0.15321875,10.229745605468748,0.0,0.0,0.0,359.08149610871686,359.6192904176486,5.153125443367594
2026-09-28 19:35:39.221741312,0.043092773437499995,-0.17955322265624998,10.22016943359375,0.0,0.0,0.0,359.08136652113126,359.61964014290777,5.152962385975499
2026-09-28 19:35:39.221741312,0.11012597656249999,-0.16997705078124997,10.1651064453125,0.0,0.0,0.0,359.0813106841431,359.6197005505948,5.153110810883251
2026-09-28 19:35:39.237379584,0.059851074218749994,-0.201099609375,10.201017089843749,0.0,-0.0010652644360316954,0.0,359.08020656156214,359.619026804957,5.153256273601533
2026-09-28 19:35:39.237379584,0.08379150390625,-0.15321875,10.22495751953125,-0.0010652644360316954,0.0,0.0,359.07963213996123,359.61928593137065,5.153401141250143
2026-09-28 19:35:39.237379584,0.05745703125,-0.14603662109374999,10.1651064453125,0.0,0.0,0.0010652644360316954,359.079144226969,359.61858543856926,5.153858437750642
2026-09-28 19:35:39.237379584,0.067033203125,-0.14364257812499998,10.20819921875,0.0,0.0,0.0010652644360316954,359.07993344587845,359.61823944790524,5.1543152842644036
2026-09-28 19:35:39.237379584,0.0383046875,-0.1484306640625,10.22016943359375,0.0,0.0,0.0,359.0802492642054,359.6178513353497,5.154466110632804
2026-09-28 19:35:39.237379584,0.10533789062499999,-0.181947265625,10.17707666015625,0.0,-0.0010652644360316954,0.0,359.0821099197193,359.61701367585715,5.155345632924643
2026-09-28 19:35:39.237379584,0.06942724609374999,-0.14364257812499998,10.229745605468748,0.0,-0.0010652644360316954,0.0,359.08054762952787,359.6153900037284,5.155602931357796
2026-09-28 19:35:39.237379584,0.1005498046875,-0.17715917968749997,10.2034111328125,0.0,0.0,0.0,359.08016611636305,359.61483677933313,5.15642989174996
2026-09-28 19:35:39.237379584,0.0622451171875,-0.17237109374999998,10.18186474609375,0.0,0.0,0.0,359.0795957803371,359.6146371356603,5.1562676275887105
2026-09-28 19:35:39.237379584,0.05745703125,-0.18673535156249998,10.201017089843749,0.0,0.0,0.0,359.07948087425416,359.61463712184144,5.156111332278275
2026-09-28 19:35:39.237379584,0.05745703125,-0.17715917968749997,10.217775390624999,0.0010652644360316954,0.0,0.0,359.0798658679907,359.6151314417055,5.156249008012036
2026-09-28 19:35:39.237379584,0.07421533203125,-0.15800683593749998,10.201017089843749,0.0,0.0,0.0,359.0797138746239,359.6150789340861,5.156092957708777
2026-09-28 19:35:39.237379584,0.04069873046875,-0.15082470703124998,10.167500488281249,0.0,0.0,0.0,359.07954343246087,359.6151911391603,5.155625065421941
2026-09-28 19:35:39.237379584,0.07421533203125,-0.1675830078125,10.157924316406248,0.0,0.0,0.0,359.07963923806346,359.61498440236966,5.155167229858877
2026-09-28 19:35:39.237379584,0.0909736328125,-0.18673535156249998,10.217775390624999,0.0,0.0010652644360316954,0.0,359.07969136099865,359.61563163989405,5.154995076831028
2026-09-28 19:35:39.237379584,0.059851074218749994,-0.20349365234374997,10.189046874999999,0.0,0.0,0.0,359.07939045417027,359.61565100371575,5.154527998184474
2026-09-28 19:35:39.237379584,0.026334472656249996,-0.17715917968749997,10.189046874999999,0.0,-0.0010652644360316954,0.0,359.0792996491357,359.61519114077737,5.154071324850849
2026-09-28 19:35:39.237379584,0.09576171874999999,-0.16997705078124997,10.167500488281249,0.0,0.0,0.0,359.0796933400163,359.6151778380681,5.154223705423875
2026-09-28 19:35:39.237379584,0.0813974609375,-0.1484306640625,10.234533691406249,0.0,0.0,0.0010652644360316954,359.0798349643751,359.61537049801615,5.154671049240137
2026-09-28 19:35:39.237379584,0.06463916015625,-0.17237109374999998,10.236927734375,0.0,-0.0010652644360316954,0.0,359.0800911011817,359.61463448325725,5.154216947847948
2026-09-28 19:35:39.237379584,0.05266894531249999,-0.17237109374999998,10.222563476562499,0.0,0.0,0.0010652644360316954,359.08050189194745,359.6143662647157,5.154669518157226
2026-09-28 19:35:39.237379584,0.0909736328125,-0.16040087890625,10.201017089843749,0.0,0.0,0.0,359.08013248422964,359.6146451704325,5.154508040703071
2026-09-28 19:35:39.237379584,0.0813974609375,-0.17715917968749997,10.212987304687498,0.0,-0.0010652644360316954,0.0,359.0801165350951,359.61474154769274,5.154649187430764
2026-09-28 19:35:39.237379584,0.047880859374999994,-0.14124853515625,10.184258789062499,0.0,0.0,-0.0010652644360316954,359.0797943313621,359.6146323200409,5.154187087268418
2026-09-28 19:35:39.237379584,0.09576171874999999,-0.17237109374999998,10.20819921875,0.0,0.0,0.0,359.07964979851323,359.61462342046224,5.154334061522032
2026-09-28 19:35:39.237379584,0.09336767578124999,-0.16518896484374998,10.21059326171875,0.0010652644360316954,-0.0010652644360316954,0.0010652644360316954,359.07985864370585,359.61390242540944,5.154797712103727
