Timestamp,ax,ay,az,gx,gy,gz,roll,pitch,yaw
2026-09-29 19:44:02.380203264,0.04548681640625,-0.1149140625,10.19144091796875,0.0,0.0,0.0,359.7189274752472,359.20404737175835,48.049179329755404
2026-09-29 19:44:02.380203264,0.1005498046875,-0.12209619140624998,10.189046874999999,0.0,0.0,0.0,359.7180726211678,359.2055140095687,48.04922525559694
2026-09-29 19:44:02.380203264,0.07900341796874999,-0.11730810546874999,10.212987304687498,0.0,-0.0021305288720633907,0.0,359.71699489039764,359.2056164698619,48.049274478211416
2026-09-29 19:44:02.380203264,0.1292783203125,-0.11730810546874999,10.196229003906248,0.0,-0.0021305288720633907,0.0010652644360316954,359.7157820307596,359.20554586231583,48.04963224158798
2026-09-29 19:44:02.380203264,0.10294384765624999,-0.13646044921875,10.1938349609375,0.0,0.0,0.0,359.7145091746977,359.2060310442456,48.04968114347854
2026-09-29 19:44:02.380203264,0.14124853515625,-0.12209619140624998,10.18665283203125,0.0,0.0,0.0,359.71394127307366,359.2067647453608,48.04972879833015
2026-09-29 19:44:02.396544512,0.09815576171875,-0.10533789062499999,10.184258789062499,0.0,0.0,0.0,359.713131498795,359.2073107541847,48.049165107475055
2026-09-29 19:44:02.396610304,0.1005498046875,-0.076609375,10.236927734375,0.0,-0.0010652644360316954,0.0,359.7122618945836,359.2078307796308,48.04829458292111
2026-09-29 19:44:02.396610304,0.06463916015625,-0.13885449218749998,10.19144091796875,0.0,0.0010652644360316954,0.0010652644360316954,359.71186854649807,359.20906232801707,48.048637565642245
2026-09-29 19:44:02.396610304,0.1005498046875,-0.08618554687499999,10.19144091796875,0.0,0.0,0.0010652644360316954,359.7115273410773,359.20995222591796,48.04898711114084
2026-09-29 19:44:02.396610304,0.10533789062499999,-0.10773193359375,10.160318359375,0.0,0.0,0.0,359.7114040877511,359.2105250089419,48.04903001115813
2026-09-29 19:44:02.396610304,0.124490234375,-0.09815576171875,10.172288574218749,0.0,-0.0010652644360316954,0.0010652644360316954,359.7103684953062,359.2111187514951,48.04968569915448
2026-09-29 19:44:02.396610304,0.07182128906249999,-0.14124853515625,10.21538134765625,-0.0010652644360316954,-0.0010652644360316954,0.0010652644360316954,359.70939275551706,359.2112486287463,48.05003714746259
2026-09-29 19:44:02.396610304,0.067033203125,-0.07900341796874999,10.129195800781249,0.0,0.0,0.0021305288720633907,359.7081374189146,359.2124797174757,48.05069450119611
2026-09-29 19:44:02.396610304,0.0622451171875,-0.09336767578124999,10.2417158203125,0.0,0.0,0.0,359.7080930251601,359.21330488058976,48.051044193548016
2026-09-29 19:44:02.396610304,0.09815576171875,-0.09815576171875,10.15313623046875,-0.0010652644360316954,-0.0021305288720633907,0.0,359.70729523013335,359.2134333991158,48.05139466223234
2026-09-29 19:44:02.396610304,0.10773193359375,-0.11970214843749999,10.150742187499999,0.0,-0.0010652644360316954,0.0010652644360316954,359.7067757644394,359.21379518063134,48.05174391981938
2026-09-29 19:44:02.396610304,0.08857958984374999,-0.08379150390625,10.21538134765625,0.0,0.0,0.0010652644360316954,359.705806825568,359.2144878436328,48.05209363956515
2026-09-29 19:44:02.396610304,0.055062988281249996,-0.07900341796874999,10.205805175781249,0.0,-0.0010652644360316954,0.0,359.70510188422156,359.2152643716533,48.05274494303827
2026-09-29 19:44:02.396610304,0.11252001953124999,-0.1292783203125,10.1651064453125,0.0,0.0,0.0,359.7047641132766,359.2166307390029,48.05278343038311
2026-09-29 19:44:02.396610304,0.06942724609374999,-0.13646044921875,10.184258789062499,0.0,-0.0010652644360316954,0.0010652644360316954,359.7042514368519,359.2167234450716,48.05313834357034
2026-09-29 19:44:02.411680768,0.08379150390625,-0.11012597656249999,10.179470703124998,0.0,-0.0010652644360316954,0.0,359.70353177848244,359.2172524522041,48.05318530223032
2026-09-29 19:44:02.411680768,0.047880859374999994,-0.0909736328125,10.212987304687498,0.0,0.0,0.0,359.7025253153102,359.21824235153974,48.05292358398867
2026-09-29 19:44:02.413390848,0.07421533203125,-0.12688427734375,10.18186474609375,0.0,-0.0010652644360316954,0.0,359.70140654277475,359.2191509841661,48.052355640460476
2026-09-29 19:44:02.413390848,0.10533789062499999,-0.10294384765624999,10.1938349609375,0.0,0.0,0.0,359.7004904197157,359.219625110104,48.05271020932259
2026-09-29 19:44:02.413390848,0.12209619140624998,-0.1149140625,10.2034111328125,0.0,0.0,0.0,359.69992670831846,359.2205295740366,48.05244658766768
2026-09-29 19:44:02.413390848,0.0622451171875,-0.11012597656249999,10.189046874999999,0.0,0.0,0.0,359.6989374022421,359.2216899942242,48.05248820019103
2026-09-29 19:44:02.413390848,0.09336767578124999,-0.08618554687499999,10.201017089843749,0.0,-0.0021305288720633907,0.0,359.6980328072552,359.2222849624769,48.05223242316434
2026-09-29 19:44:02.413390848,0.07900341796874999,-0.09336767578124999,10.1651064453125,0.0010652644360316954,0.0,0.0,359.69810995631366,359.22345924481704,48.052273550548016
2026-09-29 19:44:02.413390848,0.1005498046875,-0.11252001953124999,10.1938349609375,0.0,0.0,0.0,359.69781627401187,359.22454117562404,48.052010356638746
2026-09-29 19:44:02.413390848,0.0813974609375,-0.11252001953124999,10.196229003906248,0.0,-0.0010652644360316954,0.0,359.6973909065267,359.22429538590046,48.05175534544891
2026-09-29 19:44:02.413390848,0.0813974609375,-0.11730810546874999,10.157924316406248,0.0,-0.0021305288720633907,0.0,359.6964277384789,359.2246475769366,48.051191054902176
2026-09-29 19:44:02.413390848,0.067033203125,-0.15321875,10.172288574218749,0.0,0.0,0.0010652644360316954,359.6959697957268,359.2251586558581,48.05154361829084
2026-09-29 19:44:02.413390848,0.1005498046875,-0.1005498046875,10.1363779296875,-0.0010652644360316954,0.0,0.0010652644360316954,359.69453308808403,359.2259380017099,48.05189530460876
2026-09-29 19:44:02.413390848,0.08857958984374999,-0.08618554687499999,10.150742187499999,0.0,-0.0010652644360316954,0.0,359.69353007777585,359.2264578677286,48.05163495160779
2026-09-29 19:44:02.413390848,0.067033203125,-0.09815576171875,10.189046874999999,0.0,0.0,0.0,359.6929638622935,359.2269680146289,48.05167977452284
2026-09-29 19:44:02.413390848,0.07182128906249999,-0.06942724609374999,10.1268017578125,0.0,0.0,0.0,359.6926109490936,359.22800670477346,48.05172411602242
2026-09-29 19:44:02.413390848,0.07182128906249999,-0.11252001953124999,10.155530273437499,0.0,0.0,0.0,359.69231954135563,359.22824679533045,48.05207609441131
2026-09-29 19:44:02.413390848,0.07900341796874999,-0.14364257812499998,10.189046874999999,0.0,-0.0010652644360316954,0.0010652644360316954,359.6918557817229,359.2287510262334,48.0524246190749
2026-09-29 19:44:02.413390848,0.07900341796874999,-0.1005498046875,10.155530273437499,0.0,0.0,0.0,359.69108898397207,359.22949052735987,48.051860007709145
2026-09-29 19:44:02.435413760,0.0622451171875,-0.162794921875,10.18186474609375,0.0,-0.0010652644360316954,0.0,359.6903102678547,359.22934050101986,48.051300564588544
2026-09-29 19:44:02.435413760,0.0909736328125,-0.10294384765624999,10.14356005859375,0.0,-0.0021305288720633907,0.0,359.68927691734365,359.2292052620245,48.051045572211635
2026-09-29 19:44:02.449862144,0.07900341796874999,-0.13406640625,10.16989453125,0.0,0.0,0.0,359.6893407592729,359.2297201390563,48.05108843166659
2026-09-29 19:44:02.463016960,0.035910644531249994,-0.1005498046875,10.18665283203125,0.0,0.0,0.0,359.68858414665084,359.2312578895061,48.05113074561257
2026-09-29 19:44:02.463016960,0.09576171874999999,-0.09336767578124999,10.155530273437499,0.0,-0.0010652644360316954,0.0,359.6879879419372,359.23167799167845,48.051177465231746
2026-09-29 19:44:02.479256320,0.07421533203125,-0.12688427734375,10.20819921875,0.0,0.0010652644360316954,0.0010652644360316954,359.6876963757554,359.2325074036357,48.051215113811296
2026-09-29 19:44:02.498497280,0.047880859374999994,-0.13885449218749998,10.16989453125,0.0,0.0,0.0,359.6871246911969,359.23335246349285,48.05156333630015
2026-09-29 19:44:02.498497280,0.09815576171875,-0.11252001953124999,10.21059326171875,0.0,-0.0021305288720633907,0.0,359.6859477153393,359.23367424259567,48.05161380497994
2026-09-29 19:44:02.513717248,0.07421533203125,-0.11012597656249999,10.17707666015625,0.0,0.0,0.0010652644360316954,359.68571468008895,359.23377273344926,48.051659760336506
2026-09-29 19:44:02.522830080,0.08857958984374999,-0.09815576171875,10.160318359375,0.0,0.0,0.0010652644360316954,359.6848544582922,359.2346284052846,48.05200610056779
2026-09-29 19:44:02.533040384,0.10294384765624999,-0.10773193359375,10.150742187499999,0.0,0.0,0.0,359.6843973970447,359.2350680527874,48.052049389301104
2026-09-29 19:44:02.556601088,0.10294384765624999,-0.13167236328124998,10.1938349609375,0.0,0.0,0.0,359.6838747388246,359.2356124256074,48.05209174982749
2026-09-29 19:44:02.558055936,0.08618554687499999,-0.09336767578124999,10.189046874999999,0.0,0.0010652644360316954,0.0,359.6834440758799,359.23673210776445,48.05243870475778
2026-09-29 19:44:02.570993408,0.08379150390625,-0.10533789062499999,10.124407714843748,0.0010652644360316954,0.0010652644360316954,0.0010652644360316954,359.68333212007315,359.23782330475524,48.052783067614826
2026-09-29 19:44:02.578342400,0.08618554687499999,-0.1005498046875,10.184258789062499,0.0,0.0,0.0,359.68294253588846,359.23888793650593,48.052826073101365
2026-09-29 19:44:02.584540672,0.0909736328125,-0.11012597656249999,10.21059326171875,-0.0010652644360316954,-0.0010652644360316954,0.0,359.6817105057451,359.2399527210685,48.05256291368694
2026-09-29 19:44:02.594541056,0.08618554687499999,-0.13646044921875,10.22495751953125,0.0,0.0,0.0,359.6810756087097,359.2405048315006,48.05260680712292
2026-09-29 19:44:02.594855936,0.10773193359375,-0.14603662109374999,10.17707666015625,0.0,0.0010652644360316954,0.0,359.6803543286702,359.24231505420187,48.05234149444792
2026-09-29 19:44:02.610511616,0.09336767578124999,-0.10533789062499999,10.179470703124998,0.0010652644360316954,0.0,0.0,359.6803267135161,359.2432581314679,48.05268874629021
2026-09-29 19:44:02.626109440,0.07182128906249999,-0.11012597656249999,10.162712402343749,0.0,0.0,0.0,359.6801738282836,359.2432542260758,48.05242846242152
2026-09-29 19:44:02.641733376,0.06463916015625,-0.13885449218749998,10.239321777343749,0.0,0.0,0.0010652644360316954,359.67984578925956,359.24346761499294,48.0533893419718
2026-09-29 19:44:02.641733376,0.09576171874999999,-0.10294384765624999,10.184258789062499,0.0,0.0,0.0021305288720633907,359.6791255935094,359.2442756703743,48.0543496883021
2026-09-29 19:44:02.657385472,0.07182128906249999,-0.124490234375,10.18186474609375,0.0,-0.0021305288720633907,0.0,359.6783354695187,359.24459201512406,48.05439322770698
2026-09-29 19:44:02.657385472,0.12688427734375,-0.1149140625,10.18665283203125,0.0,0.0,0.0,359.67727316528317,359.2464565863068,48.05412827847063
2026-09-29 19:44:02.673010688,0.11012597656249999,-0.08379150390625,10.14834814453125,0.0,0.0,0.0010652644360316954,359.67669814295374,359.24662036938577,48.054172949346565
2026-09-29 19:44:02.688612864,0.06463916015625,-0.11012597656249999,10.16989453125,0.0,0.0,0.0,359.67625768402223,359.24713127332416,48.05421400581601
2026-09-29 19:44:02.688612864,0.09336767578124999,-0.0909736328125,10.179470703124998,0.0,0.0,0.0,359.67597754265825,359.2472826752904,48.0542606701532
2026-09-29 19:44:02.704265728,0.07421533203125,-0.124490234375,10.145954101562499,0.0,0.0,0.0,359.67592664232757,359.2480020516322,48.053995546970526
2026-09-29 19:44:02.720638464,0.0909736328125,-0.11252001953124999,10.18186474609375,0.0,-0.0010652644360316954,0.0,359.67531327384347,359.2479729491637,48.05404409621811
2026-09-29 19:44:02.720638464,0.06463916015625,-0.0909736328125,10.157924316406248,0.0,0.0,0.0010652644360316954,359.6753069215871,359.2483183533016,48.05439034947135
2026-09-29 19:44:02.735668736,0.09576171874999999,-0.12209619140624998,10.102861328125,-0.0010652644360316954,0.0,0.0,359.6742734078761,359.24903941445916,48.05443519318702
2026-09-29 19:44:02.735668736,0.0622451171875,-0.10294384765624999,10.196229003906248,0.0,-0.0010652644360316954,0.0,359.6740085309068,359.24914124601094,48.054485510828634
2026-09-29 19:44:02.751330816,0.10533789062499999,-0.1149140625,10.227351562499999,0.0,0.0,0.0010652644360316954,359.6735537566115,359.2497723038011,48.0551387166054
2026-09-29 19:44:02.751330816,0.10773193359375,-0.13885449218749998,10.198623046875,0.0,0.0,0.0010652644360316954,359.6730916563829,359.24950106255056,48.05549443674214
2026-09-29 19:44:02.766926848,0.10773193359375,-0.0909736328125,10.2034111328125,0.0,-0.0010652644360316954,0.0,359.6723048139689,359.2496598620699,48.055236651359735
2026-09-29 19:44:02.782580992,0.08857958984374999,-0.10773193359375,10.18186474609375,0.0,-0.0010652644360316954,0.0010652644360316954,359.67178559070305,359.25043359687294,48.055888980199484
2026-09-29 19:44:02.782580992,0.0909736328125,-0.076609375,10.2321396484375,0.0,-0.0010652644360316954,0.0,359.67158069994343,359.2505139503094,48.05593461624445
2026-09-29 19:44:02.798206720,0.08379150390625,-0.11012597656249999,10.18186474609375,0.0,-0.0010652644360316954,0.0,359.6708585777557,359.25117672371954,48.05597546828063
2026-09-29 19:44:02.829428224,0.0909736328125,-0.13406640625,10.141166015624998,0.0,0.0,0.0010652644360316954,359.6702348677702,359.2521558573161,48.056627393407894
2026-09-29 19:44:02.829428224,0.0909736328125,-0.10533789062499999,10.11961962890625,0.0,0.0,0.0,359.6691485295596,359.253186069742,48.05728146161405
2026-09-29 19:44:02.829428224,0.124490234375,-0.1005498046875,10.160318359375,0.0,-0.0010652644360316954,0.0,359.6682466588859,359.2534364645562,48.05702122547694
2026-09-29 19:44:02.846085888,0.11730810546874999,-0.13406640625,10.205805175781249,0.0,0.0,0.0,359.66836469541073,359.2536388113947,48.05706466581773
2026-09-29 19:44:02.846085888,0.08618554687499999,-0.1005498046875,10.184258789062499,0.0010652644360316954,0.0,0.0,359.66796870275425,359.2540581659189,48.05710914549389
2026-09-29 19:44:02.861116416,0.10533789062499999,-0.11970214843749999,10.14356005859375,0.0,0.0,0.0010652644360316954,359.6673275893627,359.2550421695769,48.05745617604467
2026-09-29 19:44:02.876763648,0.08379150390625,-0.11012597656249999,10.13158984375,0.0,0.0,0.0010652644360316954,359.6664443820201,359.2557206931553,48.05810752453661
2026-09-29 19:44:02.882950912,0.059851074218749994,-0.09576171874999999,10.22495751953125,0.0,0.0010652644360316954,0.0010652644360316954,359.66600192061156,359.25669117543055,48.058761021112744
2026-09-29 19:44:02.901891840,0.0622451171875,-0.1149140625,10.196229003906248,0.0,0.0,0.0,359.66571702236644,359.2573321072956,48.058801902242074
2026-09-29 19:44:02.905892096,0.076609375,-0.09815576171875,10.1746826171875,0.0,0.0,0.0,359.6652087946299,359.25807014211307,48.05853865371001
2026-09-29 19:44:02.927606784,0.09815576171875,-0.09576171874999999,10.1938349609375,0.0,-0.0010652644360316954,0.0021305288720633907,359.66443765630595,359.2589318528788,48.059190393593695
2026-09-29 19:44:02.927606784,0.07421533203125,-0.10294384765624999,10.1268017578125,0.0010652644360316954,0.0,0.0,359.66412830974355,359.2596186267425,48.059233776121694
2026-09-29 19:44:02.927606784,0.09815576171875,-0.067033203125,10.145954101562499,0.0,0.0,0.0010652644360316954,359.6643405205194,359.26035802444864,48.05988442672463
2026-09-29 19:44:02.943231232,0.04548681640625,-0.12688427734375,10.22495751953125,0.0,-0.0021305288720633907,0.0010652644360316954,359.6638060846872,359.2603602915046,48.06053649555311
2026-09-29 19:44:02.943231232,0.09576171874999999,-0.1005498046875,10.22016943359375,0.0,-0.0010652644360316954,0.0,359.6634353559843,359.2607089065544,48.06027901831674
2026-09-29 19:44:02.962514688,0.1149140625,-0.08857958984374999,10.22495751953125,0.0,-0.0010652644360316954,0.0021305288720633907,359.66293348144654,359.2604129448226,48.060936403512166
2026-09-29 19:44:02.962514688,0.08379150390625,-0.10533789062499999,10.179470703124998,-0.0010652644360316954,-0.0021305288720633907,0.0010652644360316954,359.6621718887176,359.2605423078476,48.06128628989044
2026-09-29 19:44:02.979805440,0.09336767578124999,-0.10294384765624999,10.227351562499999,0.0,0.0,0.0,359.66137831078436,359.2609939133646,48.061024566461214
2026-09-29 19:44:02.995754496,0.067033203125,-0.09815576171875,10.160318359375,0.0,0.0,0.0,359.66086016303495,359.2615895422329,48.06137170984919
2026-09-29 19:44:02.995754496,0.11012597656249999,-0.1292783203125,10.18665283203125,0.0,-0.0010652644360316954,0.0,359.66046185758216,359.26198634933064,48.06141396250577
2026-09-29 19:44:03.012460544,0.076609375,-0.11012597656249999,10.18186474609375,0.0010652644360316954,0.0,0.0,359.6607963507881,359.26257374379173,48.06145690879772
2026-09-29 19:44:03.044353280,0.08379150390625,-0.10294384765624999,10.205805175781249,0.0,0.0,0.0010652644360316954,359.66069620025866,359.2634511546225,48.06210761476557
2026-09-29 19:44:03.044353280,0.10533789062499999,-0.13167236328124998,10.172288574218749,0.0,0.0,-0.0010652644360316954,359.6602413023816,359.2638716181469,48.06154034527116
2026-09-29 19:44:03.067331584,0.07182128906249999,-0.0813974609375,10.189046874999999,0.0,0.0,0.0,359.6592818097072,359.26445456691226,48.06127889707774
2026-09-29 19:44:03.068328960,0.08379150390625,-0.11970214843749999,10.189046874999999,0.0,0.0,0.0,359.6591846078941,359.2647700258136,48.061016040573534
2026-09-29 19:44:03.069329920,0.09576171874999999,-0.11012597656249999,10.19144091796875,0.0,0.0,0.0,359.65867519671673,359.2650117594014,48.06105982080739
2026-09-29 19:44:03.072542208,0.05745703125,-0.11970214843749999,10.14834814453125,0.0,0.0,0.0,359.6580438897598,359.2656027782824,48.061103325116946
2026-09-29 19:44:03.079037184,0.124490234375,-0.11970214843749999,10.20819921875,0.0,0.0,0.0,359.65779825628584,359.26645782319633,48.061145696084004
2026-09-29 19:44:03.095019264,0.059851074218749994,-0.08379150390625,10.24889794921875,0.0,-0.0010652644360316954,0.0,359.65780631197157,359.2661080021446,48.06119407863412
2026-09-29 19:44:03.109883904,0.08379150390625,-0.11730810546874999,10.2034111328125,0.0,0.0,0.0010652644360316954,359.6569340497863,359.26702797655935,48.06184689619815
2026-09-29 19:44:03.111644160,0.08857958984374999,-0.15082470703124998,10.157924316406248,0.0,0.0,0.0010652644360316954,359.6567506687944,359.2671980571478,48.06250234871396
2026-09-29 19:44:03.127272704,0.09576171874999999,-0.11012597656249999,10.198623046875,-0.0010652644360316954,-0.0010652644360316954,0.0,359.65542004198704,359.26778445288187,48.06254687023086
2026-09-29 19:44:03.134819840,0.09815576171875,-0.1149140625,10.162712402343749,0.0,0.0,0.0,359.6549294261109,359.2683091324567,48.06258859283129
2026-09-29 19:44:03.148317440,0.05027490234375,-0.12688427734375,10.20819921875,0.0021305288720633907,0.0,0.0010652644360316954,359.6553244781677,359.2688337033405,48.06293560238757
2026-09-29 19:44:03.148317440,0.08857958984374999,-0.11970214843749999,10.14834814453125,0.0,0.0,0.0,359.65546584097274,359.2698154876361,48.06237040226827
2026-09-29 19:44:03.161693184,0.0909736328125,-0.11252001953124999,10.1938349609375,0.0,-0.0010652644360316954,0.0,359.65465045243,359.26987909769736,48.0618055427214
2026-09-29 19:44:03.177321472,0.043092773437499995,-0.10294384765624999,10.179470703124998,0.0,0.0,0.0,359.6538333043862,359.2705155347035,48.06154216696452
2026-09-29 19:44:03.178647808,0.08618554687499999,-0.0909736328125,10.251291992187499,0.0,0.0,0.0,359.65326282379795,359.27109124219453,48.06158652144363
2026-09-29 19:44:03.197862912,0.0813974609375,-0.10294384765624999,10.1938349609375,0.0010652644360316954,0.0,0.0021305288720633907,359.6535632495182,359.2721497327667,48.06254322448686
2026-09-29 19:44:03.214665472,0.08618554687499999,-0.09336767578124999,10.217775390624999,0.0,0.0,0.0010652644360316954,359.65381055640603,359.2729587629347,48.06319327679001
2026-09-29 19:44:03.214665472,0.08618554687499999,-0.11730810546874999,10.18186474609375,0.0,-0.0010652644360316954,0.0010652644360316954,359.65290768724395,359.2738175980647,48.06354131756866
2026-09-29 19:44:03.228392960,0.07182128906249999,-0.124490234375,10.16989453125,0.0,0.0,0.0010652644360316954,359.65224134611753,359.274543113737,48.064195253326034
2026-09-29 19:44:03.245158400,0.08857958984374999,-0.10533789062499999,10.1651064453125,0.0,0.0,0.0,359.65187822817734,359.2755237646584,48.063931983588425
2026-09-29 19:44:03.245158400,0.11012597656249999,-0.09336767578124999,10.160318359375,0.0,0.0,0.0,359.6511295121082,359.276394605453,48.06366585473773
2026-09-29 19:44:03.263891200,0.07421533203125,-0.10533789062499999,10.227351562499999,0.0,-0.0021305288720633907,0.0,359.65076293273694,359.2760198351595,48.063711392978014
2026-09-29 19:44:03.263891200,0.09576171874999999,-0.12209619140624998,10.239321777343749,0.0,0.0,0.0,359.64954671636315,359.2762047609886,48.06314590693245
2026-09-29 19:44:03.279530496,0.08379150390625,-0.1149140625,10.201017089843749,0.0,0.0010652644360316954,0.0,359.6496819260831,359.27741402762797,48.06287823202255
2026-09-29 19:44:03.279530496,0.067033203125,-0.124490234375,10.212987304687498,0.0,0.0,0.0,359.6493099849679,359.2782790128821,48.06292030555882
2026-09-29 19:44:03.295074816,0.076609375,-0.11730810546874999,10.20819921875,0.0,0.0010652644360316954,0.0,359.6486034936439,359.27977970796786,48.06326593916998
2026-09-29 19:44:03.311594240,0.11970214843749999,-0.124490234375,10.179470703124998,0.0,0.0,0.0,359.6481166146914,359.28046343878844,48.06300215666886
2026-09-29 19:44:03.311594240,0.07421533203125,-0.11730810546874999,10.157924316406248,0.0,0.0,0.0,359.6474909140777,359.2811636595617,48.0633485962052
2026-09-29 19:44:03.349351680,0.0813974609375,-0.1005498046875,10.18186474609375,0.0,0.0,0.0,359.64664594870555,359.28239675511446,48.06308163173853
2026-09-29 19:44:03.368107776,0.08379150390625,-0.13646044921875,10.17707666015625,0.0,0.0,0.0,359.64643613044166,359.28275557869654,48.063125289861844
2026-09-29 19:44:03.368107776,0.12209619140624998,-0.12688427734375,10.205805175781249,0.0,-0.0010652644360316954,0.0,359.64605442556973,359.2834317615148,48.063169202524186
2026-09-29 19:44:03.399365376,0.09336767578124999,-0.12688427734375,10.18665283203125,-0.0010652644360316954,-0.0010652644360316954,0.0,359.64475850413004,359.28306015559775,48.06321878753947
2026-09-29 19:44:03.414989568,0.07900341796874999,-0.11012597656249999,10.21059326171875,-0.0010652644360316954,-0.0010652644360316954,0.0,359.64294944302384,359.2833797375825,48.06326717140921
2026-09-29 19:44:03.414989568,0.07900341796874999,-0.1005498046875,10.1746826171875,0.0,0.0,0.0,359.64264690517655,359.28368526937203,48.06300677240177
2026-09-29 19:44:03.414989568,0.09336767578124999,-0.1292783203125,10.1938349609375,0.0,0.0,0.0,359.6421248840517,359.28440495484153,48.06335366578861
2026-09-29 19:44:03.430616320,0.07900341796874999,-0.09815576171875,10.184258789062499,0.0,-0.0010652644360316954,0.0,359.64108032529055,359.2844817179384,48.063094908777806
2026-09-29 19:44:03.430616320,0.07900341796874999,-0.10294384765624999,10.124407714843748,0.0,0.0,0.0,359.6403775541552,359.28515557336823,48.06313496570299
2026-09-29 19:44:03.446240512,0.08379150390625,-0.13167236328124998,10.201017089843749,0.0,0.0,0.0010652644360316954,359.6401634520844,359.28541908014614,48.06348370538279
2026-09-29 19:44:03.446240512,0.11252001953124999,-0.1292783203125,10.133983886718749,0.0,0.0,0.0,359.6397852310418,359.2855449748244,48.06322608707099
2026-09-29 19:44:03.446240512,0.0813974609375,-0.09336767578124999,10.227351562499999,0.0,0.0010652644360316954,0.0,359.6393137450758,359.28667649405344,48.06296204077801
2026-09-29 19:44:03.446240512,0.11252001953124999,-0.11252001953124999,10.19144091796875,0.0,-0.0010652644360316954,0.0,359.63862249042955,359.28724869717666,48.06239745675807
2026-09-29 19:44:03.446240512,0.04548681640625,-0.10294384765624999,10.14356005859375,0.0,-0.0010652644360316954,0.0,359.63841676410755,359.2870978524294,48.06244290585043
2026-09-29 19:44:03.461584640,0.1149140625,-0.12209619140624998,10.1746826171875,0.0,0.0,0.0,359.63777448333616,359.28742794365587,48.06218481375996
2026-09-29 19:44:03.478981376,0.0909736328125,-0.09336767578124999,10.172288574218749,0.0,0.0,0.0,359.63710323534013,359.288264771125,48.062226417147095
2026-09-29 19:44:03.478981376,0.05266894531249999,-0.10773193359375,10.179470703124998,0.0,0.0,0.0,359.637118583244,359.2890732197437,48.06165292537359
2026-09-29 19:44:03.495100928,0.07421533203125,-0.11252001953124999,10.162712402343749,0.0,-0.0021305288720633907,0.0,359.63647056802233,359.2891221303881,48.06108966832075
2026-09-29 19:44:03.495100928,0.0813974609375,-0.10294384765624999,10.22016943359375,0.0,-0.0010652644360316954,0.0,359.6357131074257,359.2895431698319,48.060827216184265
2026-09-29 19:44:03.511862016,0.1005498046875,-0.11012597656249999,10.1651064453125,0.0,0.0,0.0,359.6355303416481,359.2904328171156,48.060563353325044
2026-09-29 19:44:03.535175424,0.0622451171875,-0.10294384765624999,10.222563476562499,0.0,0.0,0.0,359.63544026207575,359.29126769816156,48.0602963686907
2026-09-29 19:44:03.536246528,0.04069873046875,-0.08857958984374999,10.1651064453125,0.0,-0.0010652644360316954,0.0,359.63510811975937,359.29173188603784,48.06033763275019
2026-09-29 19:44:03.551381248,0.09576171874999999,-0.10773193359375,10.189046874999999,0.0,0.0,0.0,359.6343093181418,359.2930360701167,48.06037706511738
2026-09-29 19:44:03.551381248,0.09576171874999999,-0.11012597656249999,10.227351562499999,0.0,-0.0010652644360316954,0.0,359.63350021016885,359.2932414119001,48.06042056384559
2026-09-29 19:44:03.563524608,0.08379150390625,-0.10773193359375,10.145954101562499,0.0,0.0,0.0010652644360316954,359.63260765398724,359.2940375359429,48.061071248827005
2026-09-29 19:44:03.564151296,0.08857958984374999,-0.1484306640625,10.157924316406248,0.0,-0.0021305288720633907,0.0,359.63208223290076,359.2943369033981,48.06111495135032
2026-09-29 19:44:03.578292224,0.11730810546874999,-0.12209619140624998,10.124407714843748,0.0,-0.0021305288720633907,0.0010652644360316954,359.63100888815455,359.29395757204253,48.06147062113766
2026-09-29 19:44:03.600304896,0.10294384765624999,-0.07182128906249999,10.21538134765625,0.0,0.0,0.0,359.6306026819687,359.2938794061665,48.061516722978325
2026-09-29 19:44:03.600304896,0.09815576171875,-0.13646044921875,10.162712402343749,0.0,0.0010652644360316954,0.0,359.6306639579569,359.2948028201893,48.06155103961319
2026-09-29 19:44:03.611532288,0.1005498046875,-0.13167236328124998,10.227351562499999,0.0,0.0010652644360316954,0.0,359.63035216272715,359.29591769668946,48.06158999090512
2026-09-29 19:44:03.627158528,0.08857958984374999,-0.11012597656249999,10.2034111328125,0.0,0.0,0.0,359.63003394919485,359.2963966845899,48.06132771678079
2026-09-29 19:44:03.628032768,0.0909736328125,-0.07421533203125,10.20819921875,0.0,0.0,0.0,359.6297761491179,359.29701738714937,48.06136989878265
2026-09-29 19:44:03.647109888,0.06942724609374999,-0.11252001953124999,10.172288574218749,0.0,0.0,0.0010652644360316954,359.6296623416627,359.29748371393833,48.06171537984895
2026-09-29 19:44:03.647109888,0.1005498046875,-0.08857958984374999,10.17707666015625,0.0,-0.0010652644360316954,0.0,359.6294858872048,359.29799780455755,48.06175839037716
2026-09-29 19:44:03.669737984,0.0909736328125,-0.0813974609375,10.234533691406249,0.0,0.0,0.0,359.62909213121503,359.29895937909663,48.061186117759796
2026-09-29 19:44:03.669737984,0.11730810546874999,-0.13885449218749998,10.19144091796875,0.0,0.0,0.0010652644360316954,359.6290789564727,359.29915983402935,48.06122716990333
2026-09-29 19:44:03.678395392,0.10294384765624999,-0.09815576171875,10.157924316406248,0.0,-0.0010652644360316954,0.0,359.6280855484341,359.29921898500123,48.06096758070922
2026-09-29 19:44:03.678395392,0.09576171874999999,-0.13167236328124998,10.150742187499999,0.0,0.0,0.0,359.6272348487665,359.3002450721466,48.06100748710512
2026-09-29 19:44:03.713177600,0.10533789062499999,-0.1484306640625,10.16989453125,0.0,0.0,0.0,359.6268284732965,359.30057907682044,48.06074810664281
2026-09-29 19:44:03.714908672,0.07421533203125,-0.11252001953124999,10.229745605468748,0.0,-0.0010652644360316954,0.0,359.62573748068576,359.3009776631752,48.06018455315029
2026-09-29 19:44:03.714908672,0.07421533203125,-0.11012597656249999,10.212987304687498,0.0,0.0,0.0,359.62586708135217,359.3017400425341,48.059920548179704
2026-09-29 19:44:03.728489216,0.08379150390625,-0.1149140625,10.162712402343749,0.0,0.0,0.0,359.6262870857813,359.30210208531463,48.05965859861118
2026-09-29 19:44:03.745643264,0.10533789062499999,-0.067033203125,10.212987304687498,0.0,0.0,0.0,359.62625242930335,359.3026045482076,48.05939281795805
2026-09-29 19:44:03.764999680,0.10773193359375,-0.13646044921875,10.212987304687498,0.0,0.0,0.0,359.6254875960733,359.30341857656794,48.05943170674332
2026-09-29 19:44:03.764999680,0.11730810546874999,-0.08379150390625,10.133983886718749,0.0,-0.0010652644360316954,0.0010652644360316954,359.6246544826695,359.30387422054486,48.0597784506583
2026-09-29 19:44:03.764999680,0.04069873046875,-0.08618554687499999,10.14834814453125,0.0,-0.0010652644360316954,0.0,359.62481687237346,359.30359127585683,48.05981933110196
2026-09-29 19:44:03.790147840,0.08618554687499999,-0.13885449218749998,10.157924316406248,0.0,0.0,0.0,359.6242997850816,359.3047556617542,48.06016388061136
2026-09-29 19:44:03.797922816,0.0909736328125,-0.124490234375,10.212987304687498,0.0,-0.0010652644360316954,0.0,359.62362979151106,359.3047772260567,48.06021121123434
2026-09-29 19:44:03.811469312,0.10773193359375,-0.09576171874999999,10.18665283203125,0.0,0.0,0.0,359.6232941009394,359.3055579205364,48.06025417372328
2026-09-29 19:44:03.811469312,0.09815576171875,-0.1149140625,10.179470703124998,0.0010652644360316954,0.0,0.0,359.6231844885315,359.30612645662444,48.06029237612218
2026-09-29 19:44:03.826866688,0.0909736328125,-0.0813974609375,10.17707666015625,0.0,-0.0010652644360316954,0.0,359.62239533081663,359.3063764949778,48.06064422866292
2026-09-29 19:44:03.827766272,0.13167236328124998,-0.124490234375,10.1363779296875,0.0,0.0,0.0010652644360316954,359.62229721310007,359.306640832731,48.06099138046082
2026-09-29 19:44:03.842589696,0.08857958984374999,-0.10533789062499999,10.184258789062499,0.0,-0.0021305288720633907,0.0,359.6212633214982,359.3065377052206,48.060734271824565
2026-09-29 19:44:03.858246400,0.06463916015625,-0.09576171874999999,10.17707666015625,0.0,0.0,0.0,359.62087858610334,359.3069567572258,48.060774016642355
2026-09-29 19:44:03.858246400,0.08379150390625,-0.08618554687499999,10.133983886718749,0.0,-0.0010652644360316954,0.0010652644360316954,359.62008353643495,359.30778532630507,48.0608149772447
2026-09-29 19:44:03.873846784,0.07421533203125,-0.09576171874999999,10.1651064453125,0.0,0.0,0.0010652644360316954,359.6195234918051,359.30843931735166,48.061162078338505
2026-09-29 19:44:03.873846784,0.0909736328125,-0.11252001953124999,10.184258789062499,0.0,0.0010652644360316954,0.0010652644360316954,359.61935969449746,359.3092422718328,48.06181109823793
2026-09-29 19:44:03.895056640,0.0909736328125,-0.10294384765624999,10.18186474609375,0.0,-0.0021305288720633907,0.0,359.6189026804206,359.3094681872703,48.06154875266789
2026-09-29 19:44:03.906462976,0.076609375,-0.1149140625,10.160318359375,0.0,0.0,0.0010652644360316954,359.6182322230137,359.3101910912905,48.062501779680126
2026-09-29 19:44:03.906462976,0.09815576171875,-0.124490234375,10.236927734375,0.0,0.0,0.0,359.61788439803144,359.3106537972826,48.062241695981236
2026-09-29 19:44:03.921467648,0.08857958984374999,-0.0909736328125,10.222563476562499,0.0,-0.0010652644360316954,0.0,359.6173703660584,359.3112130916144,48.062588214719575
2026-09-29 19:44:03.937126656,0.07900341796874999,-0.10773193359375,10.268050292968748,-0.0010652644360316954,0.0021305288720633907,0.0,359.61566934033686,359.313218840516,48.06261903353612
2026-09-29 19:44:03.952724480,0.10533789062499999,-0.10294384765624999,10.078920898437499,0.0,0.0,0.0,359.61497441594713,359.31389233756545,48.062964040329774
2026-09-29 19:44:03.952724480,0.1005498046875,-0.10294384765624999,10.370994140625,0.0,0.0,0.0,359.6149473293287,359.31401138763965,48.062700059296354
2026-09-29 19:44:03.952724480,0.09815576171875,-0.0813974609375,10.18186474609375,0.0,0.0,0.0,359.614582259834,359.3154293500932,48.06212306102065
2026-09-29 19:44:03.968349184,0.09336767578124999,-0.10773193359375,10.07173876953125,0.0,-0.0010652644360316954,0.0010652644360316954,359.6138804121931,359.3157213530753,48.06277321416273
2026-09-29 19:44:03.984001024,0.0813974609375,-0.07182128906249999,10.29199072265625,0.0,0.0,0.0,359.6133421302132,359.3159006559827,48.06220659824996
2026-09-29 19:44:03.984001024,0.1149140625,-0.0813974609375,10.33029541015625,0.0,0.0021305288720633907,0.0,359.6129461351785,359.31789068398916,48.06223261276986
2026-09-29 19:44:03.999601408,0.10294384765624999,-0.1005498046875,9.9831591796875,-0.0010652644360316954,0.0010652644360316954,0.0010652644360316954,359.6106946253021,359.3197154634429,48.06256755297347
2026-09-29 19:44:04.015247104,0.05027490234375,-0.11730810546874999,10.03822216796875,0.0,-0.0010652644360316954,0.0,359.6094811266978,359.3203929218311,48.06230256188346
2026-09-29 19:44:04.015247104,0.0622451171875,-0.11012597656249999,10.35423583984375,0.0010652644360316954,0.0,0.0,359.60959042430994,359.32094379835354,48.06234572874102
2026-09-29 19:44:04.046477824,0.07421533203125,-0.1149140625,10.313537109375,-0.0010652644360316954,0.0,0.0,359.6092676941918,359.3216884664805,48.062384758612815
2026-09-29 19:44:04.046477824,0.10533789062499999,-0.10294384765624999,10.03822216796875,-0.0021305288720633907,-0.0010652644360316954,0.0010652644360316954,359.60756409613407,359.32227910956686,48.06273072846274
2026-09-29 19:44:04.062129664,0.08379150390625,-0.124490234375,10.11483154296875,0.0,0.0,0.0010652644360316954,359.60729799424223,359.32254456717504,48.063079938492486
2026-09-29 19:44:04.062129664,0.11012597656249999,-0.11252001953124999,10.327901367187499,0.0,-0.0021305288720633907,0.0,359.6067416556059,359.32297086020316,48.063123786649754
2026-09-29 19:44:04.062129664,0.05745703125,-0.11252001953124999,10.18665283203125,-0.0010652644360316954,0.0010652644360316954,0.0,359.60564184012486,359.3237428735138,48.062857447640106
2026-09-29 19:44:04.078474752,0.0622451171875,-0.1005498046875,10.0980732421875,0.0,0.0,0.0,359.6045813458679,359.3251943995847,48.062897322666544
2026-09-29 19:44:04.093478656,0.10533789062499999,-0.1149140625,10.2417158203125,0.0,-0.0010652644360316954,0.0,359.6047270629075,359.32555177342533,48.062939873859015
2026-09-29 19:44:04.140361984,0.0909736328125,-0.11730810546874999,10.256080078124999,0.0,0.0,0.0,359.6048605165468,359.32559511910137,48.062677449523804
2026-09-29 19:44:04.140361984,0.11970214843749999,-0.09815576171875,10.196229003906248,0.0,0.0010652644360316954,0.0,359.6039433355103,359.32697935161883,48.06271344820698
2026-09-29 19:44:04.155985664,0.09815576171875,-0.124490234375,10.11961962890625,0.0,0.0,0.0,359.6028206160039,359.32748522848084,48.062752597422914
2026-09-29 19:44:04.155985664,0.07900341796874999,-0.11252001953124999,10.2321396484375,0.0,-0.0010652644360316954,-0.0010652644360316954,359.6025043039757,359.3269857512198,48.06188592463986
2026-09-29 19:44:04.171610880,0.10773193359375,-0.10533789062499999,10.155530273437499,0.0,0.0,0.0,359.60243187401664,359.32715299560317,48.06131942542127
2026-09-29 19:44:04.187236352,0.07421533203125,-0.09815576171875,10.157924316406248,0.0,-0.0021305288720633907,0.0010652644360316954,359.6015705780691,359.32690843315703,48.06197545654786
2026-09-29 19:44:04.187236352,0.10294384765624999,-0.13646044921875,10.1938349609375,0.0,0.0,0.0,359.60084093915367,359.3277716282756,48.06170835216446
2026-09-29 19:44:04.187236352,0.059851074218749994,-0.1005498046875,10.234533691406249,0.0,0.0,0.0,359.60015133429636,359.32829344078624,48.06175154780866
2026-09-29 19:44:04.202861824,0.0909736328125,-0.13885449218749998,10.145954101562499,-0.0010652644360316954,-0.0010652644360316954,0.0010652644360316954,359.59933860618946,359.32906104213475,48.06240282319225
2026-09-29 19:44:04.202861824,0.07900341796874999,-0.09576171874999999,10.1363779296875,0.0,0.0010652644360316954,0.0,359.5987032098204,359.32996171681987,48.06244317629163
2026-09-29 19:44:04.202861824,0.124490234375,-0.10533789062499999,10.17707666015625,0.0,0.0,0.0,359.5989567202734,359.33050286686193,48.06248240316672
2026-09-29 19:44:04.211801600,0.08379150390625,-0.08379150390625,10.205805175781249,-0.0010652644360316954,0.0,0.0,359.59830226805786,359.33107475412135,48.06221414997707
2026-09-29 19:44:04.218627072,0.09336767578124999,-0.124490234375,10.13158984375,-0.0010652644360316954,-0.0021305288720633907,0.0,359.5973497816083,359.3310513831463,48.062562664848876
2026-09-29 19:44:04.234436608,0.08618554687499999,-0.10294384765624999,10.18665283203125,-0.0010652644360316954,0.0,0.0,359.5957745923872,359.33209226495205,48.062597640836664
2026-09-29 19:44:04.234436608,0.07182128906249999,-0.08857958984374999,10.179470703124998,0.0,0.0,0.0,359.59482749265345,359.333220778148,48.06293751672203
2026-09-29 19:44:04.250417152,0.07421533203125,-0.11252001953124999,10.18665283203125,-0.0010652644360316954,0.0,0.0,359.5939335837562,359.3338808409797,48.06328094955499
2026-09-29 19:44:04.266066688,0.06942724609374999,-0.12688427734375,10.1938349609375,0.0,0.0,0.0,359.59367093048166,359.33475263229536,48.06332055771545
2026-09-29 19:44:04.312983552,0.05027490234375,-0.10533789062499999,10.179470703124998,0.0,0.0,0.0,359.5928492172768,359.3351084822055,48.06366891619031
2026-09-29 19:44:04.328609536,0.10294384765624999,-0.124490234375,10.1938349609375,0.0,-0.0010652644360316954,0.0010652644360316954,359.5924373939035,359.3350628254052,48.06401823964421
2026-09-29 19:44:04.328609536,0.076609375,-0.10294384765624999,10.15313623046875,-0.0010652644360316954,-0.0021305288720633907,0.0,359.5909280978604,359.33495922492193,48.064064651416984
2026-09-29 19:44:04.344234752,0.07900341796874999,-0.14124853515625,10.2034111328125,0.0,0.0,0.0010652644360316954,359.5904838136672,359.3358927252669,48.06410261777091
2026-09-29 19:44:04.344234752,0.0909736328125,-0.11970214843749999,10.14834814453125,0.0,0.0,0.0,359.5900419489515,359.3359905798023,48.064147210091235
2026-09-29 19:44:04.344234752,0.08379150390625,-0.076609375,10.2034111328125,0.0,-0.0010652644360316954,0.0,359.5896587391924,359.33624253923955,48.064494040798074
2026-09-29 19:44:04.344234752,0.043092773437499995,-0.14124853515625,10.212987304687498,-0.0010652644360316954,0.0,0.0,359.5886999739664,359.33667113086176,48.064533177333104
2026-09-29 19:44:04.359860480,0.09336767578124999,-0.12209619140624998,10.167500488281249,0.0,-0.0010652644360316954,0.0010652644360316954,359.5877674816317,359.33753821316475,48.06488060884414
2026-09-29 19:44:04.359860480,0.09815576171875,-0.07900341796874999,10.1363779296875,0.0,0.0,0.0,359.5876082545657,359.3376579826373,48.0649231967562
2026-09-29 19:44:04.359860480,0.07900341796874999,-0.0909736328125,10.222563476562499,0.0,0.0,0.0,359.587111569083,359.3382675262507,48.0652655890038
2026-09-29 19:44:04.375735808,0.07182128906249999,-0.10533789062499999,10.16989453125,0.0,0.0,0.0,359.5865571845502,359.3393437290047,48.06530135535887
2026-09-29 19:44:04.375735808,0.0622451171875,-0.11012597656249999,10.201017089843749,0.0,-0.0010652644360316954,0.0,359.58576131901236,359.3396814687291,48.06534428705621
2026-09-29 19:44:04.391366656,0.10773193359375,-0.11252001953124999,10.217775390624999,0.0,-0.0010652644360316954,0.0,359.5853477631318,359.33988560797036,48.06477609920834
2026-09-29 19:44:04.406992896,0.09815576171875,-0.10533789062499999,10.167500488281249,0.0,-0.0010652644360316954,0.0010652644360316954,359.58455130837234,359.3404320177354,48.065426981942764
2026-09-29 19:44:04.406992896,0.08379150390625,-0.12688427734375,10.25368603515625,0.0,-0.0021305288720633907,0.0,359.58370560873124,359.3403764213642,48.06577779577387
2026-09-29 19:44:04.422642176,0.055062988281249996,-0.1149140625,10.198623046875,0.0,0.0,0.0,359.58305552540327,359.34018597227896,48.065516065358494
2026-09-29 19:44:04.453869568,0.13406640625,-0.11012597656249999,10.17707666015625,0.0,0.0,0.0,359.58277405228546,359.34126250711654,48.065247026879625
2026-09-29 19:44:04.453869568,0.11012597656249999,-0.11012597656249999,10.239321777343749,0.0,0.0,0.0,359.58239065364756,359.34129587311736,48.06498347205839
2026-09-29 19:44:04.453869568,0.0813974609375,-0.10294384765624999,10.205805175781249,0.0,0.0,0.0,359.5816021163653,359.34201879988404,48.06441149985691
2026-09-29 19:44:04.453869568,0.076609375,-0.08857958984374999,10.189046874999999,0.0,-0.0010652644360316954,0.0,359.58059866871645,359.3424221125852,48.06414813302361
2026-09-29 19:44:04.471793664,0.08379150390625,-0.0813974609375,10.162712402343749,0.0,-0.0010652644360316954,0.0,359.57964868442315,359.3431011922642,48.06388189989227
2026-09-29 19:44:04.485918976,0.10533789062499999,-0.1005498046875,10.234533691406249,0.0,0.0010652644360316954,0.0010652644360316954,359.5793699456334,359.3443674049341,48.064220670447995
2026-09-29 19:44:04.485918976,0.076609375,-0.11252001953124999,10.150742187499999,0.0,0.0,0.0,359.5791106447116,359.34471759230274,48.06425870651661
2026-09-29 19:44:04.501423872,0.07421533203125,-0.11970214843749999,10.198623046875,0.0,0.0,0.0010652644360316954,359.57874460845596,359.34551009315925,48.064905952600164
2026-09-29 19:44:04.501423872,0.09576171874999999,-0.14603662109374999,10.205805175781249,0.0,0.0,0.0010652644360316954,359.5782381193408,359.3456847892868,48.06555919932214
2026-09-29 19:44:04.517054976,0.059851074218749994,-0.10773193359375,10.251291992187499,0.0,0.0,0.0,359.57687968107547,359.34650744426943,48.06560054529551
2026-09-29 19:44:04.548307200,0.06463916015625,-0.0813974609375,10.167500488281249,-0.0010652644360316954,0.0,0.0010652644360316954,359.5757404499293,359.3475953138802,48.066249500050326
2026-09-29 19:44:04.548307200,0.055062988281249996,-0.0909736328125,10.20819921875,0.0,-0.0021305288720633907,0.0,359.5753493729395,359.3477650729793,48.066592861141366
2026-09-29 19:44:04.548307200,0.12209619140624998,-0.15561279296875,10.150742187499999,0.0,0.0,0.0,359.5752714088555,359.34799572992233,48.06632939976275
2026-09-29 19:44:04.563932416,0.08857958984374999,-0.124490234375,10.122013671875,0.0,0.0,0.0010652644360316954,359.57462638811387,359.34862298578435,48.06667458358632
2026-09-29 19:44:04.567995648,0.10294384765624999,-0.10294384765624999,10.1938349609375,0.0,0.0,0.0010652644360316954,359.57381389006713,359.3502410560644,48.0667084268245
2026-09-29 19:44:04.580000768,0.06463916015625,-0.10773193359375,10.22495751953125,0.0,-0.0010652644360316954,0.0,359.572664751607,359.3505061206964,48.06644667190199
2026-09-29 19:44:04.595655936,0.047880859374999994,-0.09815576171875,10.1746826171875,0.0,0.0,-0.0010652644360316954,359.572276228455,359.3507674899037,48.065878087354534
2026-09-29 19:44:04.595655936,0.067033203125,-0.11730810546874999,10.16989453125,-0.0010652644360316954,0.0,0.0010652644360316954,359.57140009890077,359.3514723305826,48.06622132110297
2026-09-29 19:44:04.611289088,0.04548681640625,-0.11252001953124999,10.2034111328125,0.0,0.0,0.0010652644360316954,359.5700362976692,359.3520432570626,48.06656988726457
2026-09-29 19:44:04.611289088,0.10294384765624999,-0.13646044921875,10.234533691406249,0.0,0.0,0.0010652644360316954,359.569592471858,359.35317351000856,48.066912769667944
2026-09-29 19:44:04.626883328,0.07900341796874999,-0.10533789062499999,10.172288574218749,0.0,0.0,0.0010652644360316954,359.56970187181594,359.3529636930434,48.06756823875253
2026-09-29 19:44:04.642507776,0.08379150390625,-0.11730810546874999,10.24889794921875,0.0,0.0,0.0,359.5700716977469,359.3531566170216,48.067303154965586
2026-09-29 19:44:04.658132992,0.076609375,-0.12688427734375,10.21059326171875,0.0,-0.0021305288720633907,0.0,359.5692053255178,359.3528756389669,48.06734897412956
2026-09-29 19:44:04.658132992,0.076609375,-0.11252001953124999,10.21538134765625,0.0,-0.0021305288720633907,0.0,359.56870250623894,359.3531629800131,48.06708676258066
2026-09-29 19:44:04.689383680,0.06463916015625,-0.1005498046875,10.14834814453125,0.0,0.0,0.0,359.56859868837836,359.3537818855704,48.066821196568604
2026-09-29 19:44:04.705008640,0.06463916015625,-0.14364257812499998,10.18186474609375,0.0,-0.0010652644360316954,0.0,359.56886947444076,359.35462481008085,48.06716517834288
2026-09-29 19:44:04.720635392,0.08618554687499999,-0.12688427734375,10.227351562499999,0.0,-0.0010652644360316954,0.0,359.56779140640555,359.3554501989708,48.06720891285407
2026-09-29 19:44:04.720635392,0.09336767578124999,-0.1005498046875,10.17707666015625,0.0,0.0,0.0,359.5673525172157,359.3555601873943,48.06725114815723
2026-09-29 19:44:04.736260864,0.09815576171875,-0.14124853515625,10.1746826171875,0.0,-0.0010652644360316954,0.0010652644360316954,359.5674152048205,359.35512975810747,48.06760093726876
2026-09-29 19:44:04.751885824,0.08379150390625,-0.09336767578124999,10.22495751953125,0.0,0.0,0.0010652644360316954,359.5671439027038,359.35514055274814,48.068254894011616
2026-09-29 19:44:04.767511296,0.067033203125,-0.1292783203125,10.1938349609375,0.0,0.0,0.0,359.5665082727161,359.3559819191564,48.06829480493241
2026-09-29 19:44:04.767511296,0.05745703125,-0.124490234375,10.160318359375,0.0,-0.0010652644360316954,0.0010652644360316954,359.56553334076267,359.35630521019255,48.06894981819652
2026-09-29 19:44:04.767511296,0.07421533203125,-0.12209619140624998,10.1651064453125,0.0,0.0,0.0,359.5646477288875,359.35727383335745,48.06898909128016
2026-09-29 19:44:04.783136512,0.047880859374999994,-0.10294384765624999,10.162712402343749,0.0,0.0,0.0,359.5644009885248,359.35735458862894,48.069032570928
2026-09-29 19:44:04.783136512,0.13167236328124998,-0.11970214843749999,10.189046874999999,0.0,-0.0021305288720633907,0.0010652644360316954,359.5638066745139,359.35774229715423,48.06937826103808
2026-09-29 19:44:04.783136512,0.07182128906249999,-0.09336767578124999,10.21059326171875,0.0,0.0,0.0,359.5632186046387,359.3578924069171,48.0694164210161
2026-09-29 19:44:04.783136512,0.10533789062499999,-0.1005498046875,10.18186474609375,0.0,0.0,0.0,359.5632062776491,359.35892811006914,48.06914754652191
2026-09-29 19:44:04.799096832,0.07900341796874999,-0.09576171874999999,10.246503906249998,0.0,0.0,0.0,359.563115005878,359.3595837750291,48.06857660909422
2026-09-29 19:44:04.814729216,0.1005498046875,-0.15561279296875,10.1746826171875,0.0,0.0,0.0,359.56318252401036,359.36039058908426,48.06830907203725
2026-09-29 19:44:04.830355200,0.05266894531249999,-0.1149140625,10.11004345703125,0.0,0.0,0.0,359.5632166962762,359.3604768399897,48.06835291518015
2026-09-29 19:44:04.845980672,0.11730810546874999,-0.0813974609375,10.155530273437499,0.0,0.0,0.0,359.5628654288083,359.36128424872953,48.06808664051542
2026-09-29 19:44:04.861605632,0.1292783203125,-0.13646044921875,10.1746826171875,0.0010652644360316954,0.0,0.0010652644360316954,359.56340359896114,359.36199271927273,48.06812348777643
2026-09-29 19:44:04.861605632,0.067033203125,-0.11252001953124999,10.16989453125,0.0,0.0,0.0,359.56335677864024,359.3626983107497,48.06816331631751
2026-09-29 19:44:04.861605632,0.1005498046875,-0.124490234375,10.133983886718749,0.0010652644360316954,0.0,0.0,359.5638043444385,359.3631489165485,48.06789839845602
2026-09-29 19:44:04.877231104,0.10773193359375,-0.09336767578124999,10.179470703124998,0.0,-0.0010652644360316954,0.0,359.5635585836936,359.3634182337951,48.06762386673048
2026-09-29 19:44:04.877231104,0.124490234375,-0.11730810546874999,10.1938349609375,0.0,0.0010652644360316954,0.0010652644360316954,359.5633303491443,359.36420911780533,48.0682436376612
2026-09-29 19:44:04.892857088,0.05745703125,-0.12209619140624998,10.17707666015625,0.0,0.0,0.0010652644360316954,359.56281266567504,359.364894439023,48.0688666278824
2026-09-29 19:44:04.908799488,0.067033203125,-0.10294384765624999,10.133983886718749,0.0,0.0,0.0,359.5621834001953,359.3652942627353,48.06888186246296
2026-09-29 19:44:04.916315136,0.07421533203125,-0.1149140625,10.196229003906248,0.0,0.0,0.0,359.5620577175622,359.365445857119,48.06859305311344
2026-09-29 19:44:04.924820992,0.05266894531249999,-0.13406640625,10.179470703124998,-0.0010652644360316954,0.0,0.0,359.5613765855344,359.36587820663954,48.06830139008319
2026-09-29 19:44:04.940451840,0.0909736328125,-0.124490234375,10.21538134765625,0.0,-0.0021305288720633907,0.0,359.5605864812569,359.36602507468723,48.06862356956969
2026-09-29 19:44:04.940451840,0.059851074218749994,-0.11252001953124999,10.162712402343749,0.0,-0.0010652644360316954,0.0,359.5595914563164,359.3659144881869,48.068334294448285
2026-09-29 19:44:04.956076800,0.07900341796874999,-0.08857958984374999,10.19144091796875,0.0,0.0,0.0,359.55954742923547,359.3664257570793,48.068349885937
2026-09-29 19:44:04.956076800,0.10294384765624999,-0.0622451171875,10.22016943359375,0.0,0.0,0.0,359.5596905999088,359.3668593856186,48.068361034625134
2026-09-29 19:44:04.971702528,0.067033203125,-0.1149140625,10.157924316406248,0.0,0.0,0.0010652644360316954,359.5598966938439,359.3669378295427,48.06867888176847
2026-09-29 19:44:04.987328000,0.0909736328125,-0.1005498046875,10.21538134765625,0.0,0.0,0.0,359.5598130715245,359.3674480561834,48.068692540566275
2026-09-29 19:44:05.002980608,0.08379150390625,-0.1292783203125,10.196229003906248,0.0,-0.0010652644360316954,0.0,359.559973717601,359.3675087656074,48.06840070580394
2026-09-29 19:44:05.002980608,0.07900341796874999,-0.1005498046875,10.16989453125,0.0,-0.0010652644360316954,0.0,359.5601023990854,359.3673815298546,48.068420108643714
2026-09-29 19:44:05.002980608,0.07900341796874999,-0.11252001953124999,10.201017089843749,0.0,0.0,0.0,359.55976549821753,359.36781013292784,48.06843317237954
2026-09-29 19:44:05.018580224,0.07182128906249999,-0.067033203125,10.1746826171875,0.0,0.0,0.0010652644360316954,359.5597081210518,359.3685245567643,48.06874933423123
2026-09-29 19:44:05.034204416,0.09576171874999999,-0.1149140625,10.162712402343749,0.0,-0.0010652644360316954,0.0,359.5602219444457,359.3684027689273,48.06845922418017
2026-09-29 19:44:05.034204416,0.08618554687499999,-0.10533789062499999,10.229745605468748,0.0,-0.0010652644360316954,0.0,359.5599004587214,359.36858167364903,48.06847453721474
2026-09-29 19:44:05.049829376,0.10533789062499999,-0.12688427734375,10.196229003906248,0.0,0.0,0.0,359.55934414202375,359.3692558224663,48.06848425156327
2026-09-29 19:44:05.065460736,0.0909736328125,-0.11730810546874999,10.15313623046875,0.0,0.0,0.0010652644360316954,359.55887568300085,359.3692110077792,48.068806196226035
2026-09-29 19:44:05.081082624,0.10294384765624999,-0.11730810546874999,10.16989453125,0.0,-0.0010652644360316954,0.0,359.55833977540055,359.36932200780444,48.069125592478386
2026-09-29 19:44:05.097051648,0.08379150390625,-0.11970214843749999,10.205805175781249,0.0,0.0,0.0,359.55778271126746,359.369259837537,48.06914006277806
2026-09-29 19:44:05.113560832,0.08618554687499999,-0.0813974609375,10.22016943359375,0.0,0.0,0.0010652644360316954,359.55774590780453,359.37002251059323,48.06915068860791
2026-09-29 19:44:05.113560832,0.10773193359375,-0.12688427734375,10.160318359375,0.0,0.0,0.0,359.5577725307665,359.37038237226767,48.06915980286438
2026-09-29 19:44:05.128566272,0.0813974609375,-0.1484306640625,10.205805175781249,0.0010652644360316954,0.0,0.0,359.558427165928,359.3708998485882,48.06886445594695
2026-09-29 19:44:05.128566272,0.10533789062499999,-0.13646044921875,10.184258789062499,0.0,0.0,0.0010652644360316954,359.55763316673,359.37137991023604,48.06887907718927
2026-09-29 19:44:05.128566272,0.09576171874999999,-0.14603662109374999,10.150742187499999,0.0,-0.0010652644360316954,0.0010652644360316954,359.5570162646775,359.3717004142546,48.069502029142335
2026-09-29 19:44:05.144197376,0.09576171874999999,-0.09815576171875,10.2417158203125,0.0,0.0,0.0,359.5568023649397,359.371699735352,48.06982445560021
2026-09-29 19:44:05.144197376,0.05745703125,-0.11970214843749999,10.16989453125,0.0,-0.0010652644360316954,0.0,359.556992520458,359.372311535882,48.0698351836903
2026-09-29 19:44:05.159849472,0.11730810546874999,-0.14124853515625,10.18186474609375,0.0,-0.0010652644360316954,0.0,359.55636896007013,359.3726363725869,48.069850400298726
2026-09-29 19:44:05.175450112,0.10294384765624999,-0.10773193359375,10.15313623046875,0.0,0.0,0.0,359.55602201391025,359.3729212306966,48.06925315682503
2026-09-29 19:44:05.175450112,0.09336767578124999,-0.124490234375,10.16989453125,0.0,0.0,0.0,359.5556940475219,359.37336723859914,48.06926602919146
2026-09-29 19:44:05.191074560,0.043092773437499995,-0.124490234375,10.212987304687498,0.0,0.0,0.0010652644360316954,359.55522046804697,359.3736788255443,48.06928044566264
2026-09-29 19:44:05.206726400,0.059851074218749994,-0.10773193359375,10.196229003906248,0.0,-0.0021305288720633907,0.0010652644360316954,359.5544630623513,359.37345120853,48.069912046456466
2026-09-29 19:44:05.206726400,0.076609375,-0.08857958984374999,10.1746826171875,0.0,0.0,0.0010652644360316954,359.5546784832196,359.3737782798989,48.07023315225553
2026-09-29 19:44:05.222327040,0.09576171874999999,-0.1292783203125,10.229745605468748,0.0,0.0,0.0,359.5548425145189,359.3742549336934,48.07054911426949
2026-09-29 19:44:05.222327040,0.10533789062499999,-0.13406640625,10.124407714843748,0.0,0.0,0.0010652644360316954,359.55500558075033,359.3742586118396,48.0711759063998
2026-09-29 19:44:05.237950976,0.076609375,-0.09576171874999999,10.1938349609375,0.0,0.0,0.0,359.55453307357556,359.3746009559622,48.07088525022515
2026-09-29 19:44:05.237950976,0.06942724609374999,-0.07182128906249999,10.18186474609375,0.0,0.0,0.0,359.5547931008142,359.37528629776205,48.07089260537712
2026-09-29 19:44:05.269236224,0.1005498046875,-0.1292783203125,10.19144091796875,0.0,0.0,0.0,359.55446497185056,359.3766736356602,48.07120019700841
2026-09-29 19:44:05.269236224,0.10294384765624999,-0.10533789062499999,10.179470703124998,0.0,0.0010652644360316954,0.0,359.5541507048511,359.3775798951865,48.07151328644238
2026-09-29 19:44:05.284864000,0.11252001953124999,-0.14364257812499998,10.201017089843749,-0.0010652644360316954,-0.0021305288720633907,0.0010652644360316954,359.5530223503046,359.3775019555166,48.07214086726688
2026-09-29 19:44:05.284864000,0.06463916015625,-0.1005498046875,10.205805175781249,0.0,0.0,0.0,359.5523756605157,359.37775510490667,48.071852105048194
2026-09-29 19:44:05.300453632,0.07421533203125,-0.09336767578124999,10.11483154296875,0.0,0.0,0.0,359.552384190408,359.3780096813946,48.0721721281848
2026-09-29 19:44:05.316079104,0.0813974609375,-0.14124853515625,10.1938349609375,0.0,0.0,0.0010652644360316954,359.55302247315785,359.3784473151375,48.07279464795234
2026-09-29 19:44:05.331704064,0.10533789062499999,-0.124490234375,10.16989453125,0.0,0.0,0.0,359.5530645776804,359.3786175388377,48.072507299286826
2026-09-29 19:44:05.331704064,0.11252001953124999,-0.09576171874999999,10.196229003906248,0.0,0.0,0.0,359.5528607939749,359.3787592741191,48.0725211798179
2026-09-29 19:44:05.347329280,0.08857958984374999,-0.11252001953124999,10.201017089843749,0.0,0.0,0.0,359.552622993515,359.37872945568455,48.07223038888993
2026-09-29 19:44:05.362990080,0.076609375,-0.11012597656249999,10.172288574218749,0.0,0.0,0.0,359.5528347630001,359.379446024225,48.072241609039274
2026-09-29 19:44:05.362990080,0.09336767578124999,-0.10294384765624999,10.1651064453125,0.0,0.0,0.0,359.552115229937,359.3792423649495,48.072260220384536
2026-09-29 19:44:05.378582016,0.08618554687499999,-0.08379150390625,10.160318359375,0.0010652644360316954,0.0,0.0,359.5523830282738,359.3799602623877,48.071660477479575
2026-09-29 19:44:05.378582016,0.0909736328125,-0.12688427734375,10.198623046875,0.0,0.0,0.0,359.5521292668748,359.38032738011697,48.07167249685715
2026-09-29 19:44:05.394205952,0.1005498046875,-0.10533789062499999,10.1938349609375,0.0,-0.0010652644360316954,0.0,359.5519991896083,359.38055930830683,48.07138376791896
2026-09-29 19:44:05.409854464,0.0813974609375,-0.1149140625,10.162712402343749,0.0,0.0,0.0,359.55184919521554,359.3808492877301,48.07169980620159
2026-09-29 19:44:05.409854464,0.0622451171875,-0.10294384765624999,10.14834814453125,0.0,0.0,0.0,359.5514834208464,359.3812651845114,48.0720182285579
2026-09-29 19:44:05.425457920,0.08857958984374999,-0.11970214843749999,10.20819921875,0.0,0.0,0.0010652644360316954,359.55086588802095,359.3815938771348,48.07264117872549
2026-09-29 19:44:05.441082624,0.08857958984374999,-0.09576171874999999,10.1651064453125,0.0,-0.0021305288720633907,0.0010652644360316954,359.5499016325453,359.3815628126217,48.07265903629698
2026-09-29 19:44:05.441082624,0.076609375,-0.15800683593749998,10.172288574218749,0.0,-0.0010652644360316954,-0.0010652644360316954,359.549974069272,359.38159270119223,48.07236803053973
2026-09-29 19:44:05.456732928,0.05027490234375,-0.10773193359375,10.196229003906248,0.0,0.0,0.0010652644360316954,359.54962859299616,359.3812946782671,48.07269432469235
2026-09-29 19:44:05.456732928,0.035910644531249994,-0.14364257812499998,10.150742187499999,0.0,0.0,0.0,359.5496678163673,359.38200394344653,48.073011638529124
2026-09-29 19:44:05.473415680,0.09336767578124999,-0.12209619140624998,10.196229003906248,0.0010652644360316954,0.0010652644360316954,0.0021305288720633907,359.55006702275597,359.3830219629682,48.074244750077376
2026-09-29 19:44:05.488420096,0.11252001953124999,-0.10773193359375,10.138771972656249,0.0,-0.0021305288720633907,0.0,359.5494402878183,359.38317599555387,48.074870244679936
2026-09-29 19:44:05.488420096,0.10294384765624999,-0.12688427734375,10.222563476562499,0.0,-0.0010652644360316954,0.0,359.5488843204151,359.38325464741007,48.07488460068752
2026-09-29 19:44:05.504078080,0.09815576171875,-0.15082470703124998,10.198623046875,0.0,0.0,0.0010652644360316954,359.5487691476423,359.38328897909906,48.07520588057548
2026-09-29 19:44:05.519678208,0.09815576171875,-0.13406640625,10.201017089843749,0.0,-0.0010652644360316954,0.0,359.54816292451267,359.3835811084586,48.07521837336409
2026-09-29 19:44:05.519678208,0.09576171874999999,-0.11012597656249999,10.205805175781249,0.0010652644360316954,0.0,0.0,359.54832688922863,359.3841707117538,48.07553518780914
2026-09-29 19:44:05.535326720,0.08618554687499999,-0.124490234375,10.141166015624998,-0.0010652644360316954,-0.0010652644360316954,0.0,359.54731196091814,359.3844358421538,48.07555453048041
2026-09-29 19:44:05.535326720,0.11970214843749999,-0.09815576171875,10.14356005859375,0.0,-0.0010652644360316954,0.0,359.5466309624377,359.3843367739285,48.07526753549856
2026-09-29 19:44:05.550954752,0.06463916015625,-0.10533789062499999,10.263262207031248,0.0,-0.0010652644360316954,0.0,359.5467182218396,359.38430862916033,48.07528156818399
2026-09-29 19:44:05.566554112,0.04069873046875,-0.10533789062499999,10.201017089843749,0.0,0.0,0.0010652644360316954,359.54642071209526,359.3856321482882,48.07589940849006
2026-09-29 19:44:05.566554112,0.12688427734375,-0.11252001953124999,10.160318359375,0.0,0.0,0.0,359.5464063459561,359.3861631587778,48.07591217137838
2026-09-29 19:44:05.585290240,0.06942724609374999,-0.1292783203125,10.2034111328125,0.0,-0.0021305288720633907,0.0,359.5464818376732,359.385708352764,48.07592876209625
2026-09-29 19:44:05.585290240,0.0813974609375,-0.09815576171875,10.16989453125,0.0,-0.0010652644360316954,0.0,359.5457216879099,359.3857907992399,48.07625048022316
2026-09-29 19:44:05.598320128,0.076609375,-0.10533789062499999,10.217775390624999,0.0,0.0,0.0,359.5453544275829,359.3859829851021,48.07565003939092
2026-09-29 19:44:05.613989376,0.10773193359375,-0.09815576171875,10.1746826171875,-0.0010652644360316954,-0.0010652644360316954,0.0,359.5445878801651,359.38680071594024,48.07535336574099
2026-09-29 19:44:05.629587712,0.06942724609374999,-0.10294384765624999,10.18186474609375,-0.0010652644360316954,-0.0010652644360316954,0.0,359.54325801550465,359.38673163915087,48.07567458116447
2026-09-29 19:44:05.629587712,0.06942724609374999,-0.13646044921875,10.141166015624998,0.0,0.0,0.0,359.5424322993466,359.3871077132211,48.075075809596775
2026-09-29 19:44:05.629587712,0.0909736328125,-0.13885449218749998,10.227351562499999,0.0,0.0,0.0,359.5419173485123,359.3873370569348,48.07509308968539
2026-09-29 19:44:05.645212160,0.1005498046875,-0.0909736328125,10.20819921875,0.0,0.0,0.0,359.54166464363476,359.3873333736407,48.07480556378646
2026-09-29 19:44:05.661455104,0.09815576171875,-0.067033203125,10.1938349609375,0.0,0.0,0.0,359.54202864123573,359.3876329962296,48.07481741347243
2026-09-29 19:44:05.661455104,0.10294384765624999,-0.09576171874999999,10.167500488281249,0.0,0.0,0.0010652644360316954,359.5422148164731,359.3880130010359,48.07513305849988
2026-09-29 19:44:05.692630784,0.10533789062499999,-0.124490234375,10.2321396484375,0.0,0.0,0.0010652644360316954,359.54188133374424,359.3882360116762,48.075756162606005
2026-09-29 19:44:05.692630784,0.0813974609375,-0.076609375,10.18186474609375,0.0,-0.0010652644360316954,0.0,359.5416645188994,359.3877556857493,48.07577266093741
2026-09-29 19:44:05.692630784,0.124490234375,-0.09576171874999999,10.1746826171875,0.0,0.0,0.0,359.5415691078885,359.3878225145079,48.075174994612816
2026-09-29 19:44:05.708260096,0.07900341796874999,-0.09815576171875,10.160318359375,0.0,-0.0021305288720633907,0.0,359.54144795279774,359.3874928688604,48.0745776679965
2026-09-29 19:44:05.723913472,0.08379150390625,-0.12209619140624998,10.1938349609375,-0.0010652644360316954,-0.0010652644360316954,0.0,359.54034613913643,359.38763985325215,48.073984142448275
2026-09-29 19:44:05.739704832,0.076609375,-0.12688427734375,10.141166015624998,0.0,0.0,0.0,359.5394741198006,359.388107829919,48.07338581748451
2026-09-29 19:44:05.755334656,0.08857958984374999,-0.1005498046875,10.155530273437499,0.0,0.0,0.0,359.5393755880829,359.38808367062285,48.073401850447084
2026-09-29 19:44:05.755334656,0.06463916015625,-0.1149140625,10.14356005859375,0.0,-0.0010652644360316954,0.0,359.5393711969764,359.3880226615649,48.07341361681704
2026-09-29 19:44:05.770990080,0.059851074218749994,-0.09815576171875,10.155530273437499,-0.0010652644360316954,0.0,0.0,359.5387081275106,359.3883577449472,48.073121477364985
2026-09-29 19:44:05.770990080,0.10294384765624999,-0.124490234375,10.1938349609375,0.0,0.0,0.0021305288720633907,359.53900204841204,359.38921245398444,48.07374434441555
2026-09-29 19:44:05.770990080,0.07182128906249999,-0.1292783203125,10.2034111328125,0.0,-0.0010652644360316954,0.0,359.538326986917,359.38913477018815,48.07345482625404
2026-09-29 19:44:05.786586880,0.07900341796874999,-0.1149140625,10.13158984375,0.0,0.0,0.0,359.5381922586188,359.3896668710277,48.073468741172356
2026-09-29 19:44:05.802865664,0.06463916015625,-0.11730810546874999,10.18186474609375,0.0,0.0,0.0,359.5374458028105,359.39033510195014,48.073785406430886
2026-09-29 19:44:05.802865664,0.03112255859375,-0.14124853515625,10.19144091796875,0.0,0.0,0.0,359.53764548071706,359.39167477782746,48.073794099087834
2026-09-29 19:44:05.818486016,0.09336767578124999,-0.124490234375,10.157924316406248,-0.0010652644360316954,0.0,0.0,359.53686344134405,359.39217643402196,48.073810961123286
2026-09-29 19:44:05.833990912,0.09336767578124999,-0.13167236328124998,10.20819921875,0.0,-0.0010652644360316954,0.0,359.53679975471533,359.39210186674546,48.073521483632575
2026-09-29 19:44:05.849621248,0.08857958984374999,-0.08618554687499999,10.196229003906248,-0.0010652644360316954,-0.0010652644360316954,0.0,359.5361827915261,359.39235116978523,48.07322897195675
2026-09-29 19:44:05.865271296,0.10533789062499999,-0.06942724609374999,10.189046874999999,0.0,0.0,0.0,359.5360911712498,359.3922541589037,48.07324170650997
2026-09-29 19:44:05.865271296,0.0909736328125,-0.11012597656249999,10.196229003906248,0.0,-0.0010652644360316954,0.0,359.53602677278195,359.39209219098825,48.0732565105785
2026-09-29 19:44:05.865271296,0.11730810546874999,-0.11730810546874999,10.179470703124998,0.0,0.0,0.0010652644360316954,359.53580102696833,359.3930333780415,48.07357087068736
2026-09-29 19:44:05.880873984,0.07900341796874999,-0.1005498046875,10.17707666015625,-0.0010652644360316954,0.0,0.0,359.534667679188,359.39347861140146,48.07327479767184
2026-09-29 19:44:05.928137984,0.11252001953124999,-0.09815576171875,10.18186474609375,0.0,0.0,0.0,359.5344352532197,359.39383201895055,48.07328901381398
2026-09-29 19:44:05.943944960,0.076609375,-0.08857958984374999,10.138771972656249,0.0,0.0,0.0010652644360316954,359.5345508717495,359.39367452760706,48.07421824640686
2026-09-29 19:44:05.943944960,0.055062988281249996,-0.12209619140624998,10.217775390624999,0.0,0.0,0.0010652644360316954,359.5347883131189,359.3938720045011,48.07484093581836
2026-09-29 19:44:05.943944960,0.07421533203125,-0.124490234375,10.162712402343749,0.0,-0.0010652644360316954,0.0,359.53434885369353,359.39411822531537,48.07455219708741
2026-09-29 19:44:05.943944960,0.08379150390625,-0.07182128906249999,10.198623046875,0.0,-0.0010652644360316954,0.0,359.5338895653003,359.3939769601523,48.074571327809934
2026-09-29 19:44:05.959575808,0.12209619140624998,-0.124490234375,10.222563476562499,0.0,0.0,0.0,359.53404374254467,359.3943306625919,48.074582226093995
2026-09-29 19:44:05.959575808,0.06463916015625,-0.08618554687499999,10.179470703124998,0.0,0.0,0.0,359.5339503207119,359.3946030929744,48.07429051773567
2026-09-29 19:44:05.975201280,0.10294384765624999,-0.12209619140624998,10.167500488281249,0.0,0.0,0.0010652644360316954,359.5338744247447,359.3952472517985,48.07460570829956
2026-09-29 19:44:05.975201280,0.11252001953124999,-0.11970214843749999,10.179470703124998,0.0,-0.0010652644360316954,0.0010652644360316954,359.5331092946341,359.39506855644635,48.07492733007043
2026-09-29 19:44:05.975201280,0.07900341796874999,-0.09815576171875,10.179470703124998,0.0,-0.0010652644360316954,0.0021305288720633907,359.53275054865514,359.39489605814254,48.075858234898725
2026-09-29 19:44:05.990827008,0.08857958984374999,-0.13167236328124998,10.1938349609375,0.0010652644360316954,0.0,0.0,359.53309416688955,359.3955927434721,48.07587014361848
2026-09-29 19:44:06.006452480,0.05266894531249999,-0.10773193359375,10.20819921875,0.0,0.0,0.0,359.53297113804086,359.39526586677624,48.07588889128089
2026-09-29 19:44:06.022077952,0.076609375,-0.09336767578124999,10.189046874999999,0.0,0.0010652644360316954,0.0,359.533378863809,359.39634564650373,48.07589528214094
2026-09-29 19:44:06.037702912,0.076609375,-0.14364257812499998,10.14356005859375,0.0,0.0,0.0,359.5336413829471,359.39648403789846,48.075907507412374
2026-09-29 19:44:06.037702912,0.09576171874999999,-0.11012597656249999,10.18186474609375,0.0,0.0,0.0,359.53379110868167,359.3966592446076,48.07622922600036
2026-09-29 19:44:06.037702912,0.06942724609374999,-0.11730810546874999,10.1938349609375,0.0,-0.0010652644360316954,0.0,359.5330855902742,359.3965523672056,48.075940077370724
2026-09-29 19:44:06.053352704,0.067033203125,-0.12209619140624998,10.184258789062499,0.0,0.0,0.0,359.53255524693316,359.3968976632124,48.07564901488196
2026-09-29 19:44:06.068955392,0.06942724609374999,-0.11252001953124999,10.198623046875,0.0,0.0,0.0,359.5321473404132,359.39740348599076,48.075357428134936
2026-09-29 19:44:06.068955392,0.10773193359375,-0.11012597656249999,10.21538134765625,0.0,0.0,0.0010652644360316954,359.53167820974437,359.3979113777497,48.07567349863648
2026-09-29 19:44:06.085300992,0.0813974609375,-0.13167236328124998,10.189046874999999,0.0,0.0,0.0,359.5316756020871,359.39867208906253,48.07598599145006
2026-09-29 19:44:06.100305152,0.05027490234375,-0.13646044921875,10.2034111328125,0.0,0.0,0.0,359.5311947712341,359.3991503875585,48.07630547734044
2026-09-29 19:44:06.100305152,0.0813974609375,-0.13167236328124998,10.18186474609375,0.0,-0.0010652644360316954,0.0,359.5307836796341,359.399518984948,48.0763189858226
2026-09-29 19:44:06.115936000,0.10533789062499999,-0.13406640625,10.18665283203125,0.0,-0.0010652644360316954,0.0,359.5302534074641,359.3998328786911,48.07633378531488
2026-09-29 19:44:06.115936000,0.07421533203125,-0.11012597656249999,10.196229003906248,0.0,0.0,0.0010652644360316954,359.53016930121566,359.4001388667991,48.07695725370238
2026-09-29 19:44:06.147214336,0.0813974609375,-0.07421533203125,10.227351562499999,0.0,0.0010652644360316954,0.0,359.53002565001105,359.401169264026,48.07696297326142
2026-09-29 19:44:06.147214336,0.0622451171875,-0.1149140625,10.22016943359375,0.0010652644360316954,0.0010652644360316954,0.0010652644360316954,359.53045380177235,359.4021472579976,48.076965821702665
2026-09-29 19:44:06.147214336,0.0909736328125,-0.08618554687499999,10.15313623046875,0.0,0.0,0.0,359.530642974736,359.4022865826624,48.07698205509857
2026-09-29 19:44:06.162835712,0.05745703125,-0.13167236328124998,10.196229003906248,0.0,-0.0010652644360316954,0.0,359.53012322301305,359.4020420645261,48.0773036097305
2026-09-29 19:44:06.162835712,0.07900341796874999,-0.10294384765624999,10.18186474609375,0.0,0.0,0.0,359.52967949949164,359.4025506547547,48.077012256296825
2026-09-29 19:44:06.178438400,0.06463916015625,-0.11252001953124999,10.1651064453125,0.0,0.0,0.0010652644360316954,359.52935931679554,359.40285985285163,48.07733003669827
2026-09-29 19:44:06.178438400,0.09336767578124999,-0.12688427734375,10.1746826171875,0.0,0.0,0.0,359.52881795010995,359.4035517091991,48.077339102735586
2026-09-29 19:44:06.213140480,0.10294384765624999,-0.1149140625,10.196229003906248,0.0,0.0,0.0,359.5291536622757,359.40368550395283,48.07735376147929
2026-09-29 19:44:06.213140480,0.10294384765624999,-0.11730810546874999,10.198623046875,0.0,0.0,0.0,359.5291595297082,359.4038489673671,48.07736609403166
2026-09-29 19:44:06.225672448,0.09336767578124999,-0.1005498046875,10.2321396484375,0.0,0.0,0.0,359.52905610879134,359.4036832176064,48.07768715614996
2026-09-29 19:44:06.241344000,0.076609375,-0.11012597656249999,10.2034111328125,0.0,-0.0010652644360316954,0.0,359.52882372162526,359.4031049044895,48.07770628772987
2026-09-29 19:44:06.241344000,0.11252001953124999,-0.09815576171875,10.11483154296875,0.0,0.0,0.0,359.5285652362087,359.4031373670205,48.07772074360324
2026-09-29 19:44:06.256944640,0.12209619140624998,-0.15082470703124998,10.196229003906248,0.0,0.0,0.0,359.5285440123137,359.40338691938166,48.07742505969406
2026-09-29 19:44:06.256944640,0.11970214843749999,-0.10294384765624999,10.179470703124998,0.0,-0.0010652644360316954,0.0,359.5283138765583,359.4027771405082,48.07713973951355
2026-09-29 19:44:06.272567808,0.067033203125,-0.11012597656249999,10.18665283203125,0.0,0.0,0.0,359.52758187011267,359.40276783707185,48.07685069458049
2026-09-29 19:44:06.272567808,0.1292783203125,-0.10773193359375,10.22016943359375,0.0,0.0,0.0,359.52708977729355,359.4034410514671,48.07624896187351
2026-09-29 19:44:06.288193792,0.067033203125,-0.14364257812499998,10.217775390624999,0.0,0.0,0.0,359.5267203518467,359.403440433599,48.07565162638103
2026-09-29 19:44:06.303820288,0.04548681640625,-0.1005498046875,10.172288574218749,-0.0010652644360316954,-0.0010652644360316954,0.0,359.52556535963544,359.40340670556725,48.075668979208956
2026-09-29 19:44:06.303820288,0.11970214843749999,-0.12209619140624998,10.18186474609375,0.0,0.0,0.0,359.52489806260826,359.4042551000955,48.075679423140606
2026-09-29 19:44:06.319481600,0.059851074218749994,-0.08379150390625,10.18186474609375,0.0,-0.0010652644360316954,0.0,359.52417812105546,359.4040338551718,48.07600060457138
2026-09-29 19:44:06.335752704,0.07900341796874999,-0.13167236328124998,10.18665283203125,0.0,0.0,0.0010652644360316954,359.52396051271313,359.4051341437038,48.0763146488813
2026-09-29 19:44:06.351118336,0.047880859374999994,-0.12688427734375,10.21538134765625,0.0010652644360316954,-0.0010652644360316954,0.0,359.5247684302999,359.4049772659843,48.07663833346068
2026-09-29 19:44:06.366748672,0.09336767578124999,-0.11012597656249999,10.14834814453125,0.0,0.0,0.0,359.5247543668178,359.4055124447072,48.07695606772947
2026-09-29 19:44:06.366748672,0.09336767578124999,-0.09336767578124999,10.15313623046875,0.0,0.0,0.0,359.52487502764865,359.40585167404885,48.076662083534366
2026-09-29 19:44:06.366748672,0.0909736328125,-0.067033203125,10.212987304687498,0.0,0.0,0.0,359.5241056877817,359.4060436353655,48.076367781259165
2026-09-29 19:44:06.382393088,0.08618554687499999,-0.13646044921875,10.222563476562499,-0.0010652644360316954,0.0,0.0,359.523484013079,359.4067464080282,48.07637462484114
2026-09-29 19:44:06.398000896,0.0909736328125,-0.14603662109374999,10.15313623046875,0.0,0.0010652644360316954,0.0,359.52300459518034,359.4075497267049,48.07577332655765
2026-09-29 19:44:06.398000896,0.07900341796874999,-0.11730810546874999,10.172288574218749,-0.0010652644360316954,-0.0021305288720633907,0.0,359.52202461365613,359.40736946708114,48.07579153743663
2026-09-29 19:44:06.413626112,0.06463916015625,-0.11970214843749999,10.15313623046875,0.0,0.0,0.0,359.5217562649665,359.4074834672646,48.07550090236128
2026-09-29 19:44:06.429251584,0.13406640625,-0.0909736328125,10.141166015624998,0.0,0.0,0.0,359.521404258342,359.40769706480927,48.075211149959586
2026-09-29 19:44:06.444876544,0.076609375,-0.11730810546874999,10.16989453125,0.0,-0.0010652644360316954,0.0010652644360316954,359.52061906549227,359.4074553749039,48.07583804982292
2026-09-29 19:44:06.460501760,0.07900341796874999,-0.11012597656249999,10.1746826171875,0.0,0.0,0.0021305288720633907,359.5200452703329,359.4079326164164,48.07676542599323
2026-09-29 19:44:06.491752448,0.05745703125,-0.15082470703124998,10.236927734375,0.0,-0.0010652644360316954,0.0,359.51912293008274,359.4082072887788,48.07708553494619
2026-09-29 19:44:06.523004160,0.076609375,-0.13406640625,10.189046874999999,0.0,0.0,0.0,359.5183724858586,359.40867420325566,48.07648898757859
2026-09-29 19:44:06.538629376,0.06463916015625,-0.1149140625,10.205805175781249,0.0,-0.0021305288720633907,0.0,359.51761778779195,359.40866201836286,48.076202700951534
2026-09-29 19:44:06.538629376,0.076609375,-0.11012597656249999,10.1746826171875,0.0,0.0,0.0010652644360316954,359.51741772431683,359.409573957634,48.07651652153261
2026-09-29 19:44:06.538629376,0.10773193359375,-0.12688427734375,10.172288574218749,0.0,-0.0010652644360316954,0.0,359.5169368925765,359.4096458718145,48.07683517999304
2026-09-29 19:44:06.554255104,0.1149140625,-0.1005498046875,10.227351562499999,0.0,-0.0010652644360316954,0.0,359.5162822849418,359.4094330303844,48.076242717393434
2026-09-29 19:44:06.569880320,0.043092773437499995,-0.12209619140624998,10.22495751953125,-0.0010652644360316954,-0.0010652644360316954,0.0,359.5159153285333,359.40921493919245,48.07625515603211
2026-09-29 19:44:06.585505792,0.08857958984374999,-0.0909736328125,10.20819921875,0.0,0.0,0.0010652644360316954,359.5151773090861,359.41022004728086,48.07657130696288
2026-09-29 19:44:06.601131264,0.06942724609374999,-0.15082470703124998,10.198623046875,-0.0010652644360316954,0.0,0.0,359.51486903725544,359.4106614980953,48.07627271369169
2026-09-29 19:44:06.616757504,0.10533789062499999,-0.11252001953124999,10.21059326171875,-0.0010652644360316954,-0.0010652644360316954,0.0,359.51361901057345,359.41094525450603,48.076291098367115
2026-09-29 19:44:06.616757504,0.09336767578124999,-0.11730810546874999,10.1363779296875,0.0,0.0,0.0,359.5132602426541,359.4108657238582,48.07600143173221
2026-09-29 19:44:06.616757504,0.076609375,-0.11012597656249999,10.17707666015625,-0.0010652644360316954,-0.0021305288720633907,0.0,359.5127073733367,359.41064257711355,48.07632354086558
2026-09-29 19:44:06.616757504,0.047880859374999994,-0.13406640625,10.167500488281249,0.0,-0.0010652644360316954,0.0,359.51224166947554,359.41120334056274,48.07633438421756
2026-09-29 19:44:06.616757504,0.07182128906249999,-0.10533789062499999,10.222563476562499,0.0,-0.0010652644360316954,0.0,359.51157940753546,359.41163779173877,48.07604462656918
2026-09-29 19:44:06.616757504,0.09815576171875,-0.1292783203125,10.196229003906248,0.0,0.0,0.0010652644360316954,359.51095328148335,359.412384176377,48.07635968450752
2026-09-29 19:44:06.616757504,0.05266894531249999,-0.11730810546874999,10.11961962890625,0.0,0.0,0.0010652644360316954,359.51067373057833,359.4128376305578,48.07667674575271
2026-09-29 19:44:06.616757504,0.11252001953124999,-0.10533789062499999,10.172288574218749,0.0010652644360316954,0.0,0.0,359.5115955760463,359.4137070716915,48.076994128225195
2026-09-29 19:44:06.616757504,0.08618554687499999,-0.13167236328124998,10.189046874999999,0.0,0.0,0.0010652644360316954,359.5108203810414,359.41380339066666,48.07761524186384
2026-09-29 19:44:06.632383488,0.08857958984374999,-0.12209619140624998,10.21059326171875,0.0,-0.0010652644360316954,0.0,359.51092318595914,359.413906583806,48.077934169668396
2026-09-29 19:44:06.648100352,0.09336767578124999,-0.07421533203125,10.234533691406249,0.0,0.0,0.0,359.51059209505036,359.41406716660356,48.07825443399709
2026-09-29 19:44:06.663634176,0.067033203125,-0.076609375,10.1938349609375,0.0,-0.0021305288720633907,0.0,359.5107450389273,359.4138524090762,48.077962165558965
2026-09-29 19:44:06.679259392,0.07182128906249999,-0.11012597656249999,10.172288574218749,0.0,-0.0010652644360316954,0.0,359.5111420376553,359.4133167235692,48.07797818819125
2026-09-29 19:44:06.679259392,0.12209619140624998,-0.12688427734375,10.184258789062499,0.0,0.0,0.0010652644360316954,359.5108602284213,359.41373894449663,48.07829796127482
2026-09-29 19:44:06.679259392,0.08618554687499999,-0.08379150390625,10.1746826171875,0.0,-0.0010652644360316954,0.0,359.5107547363477,359.41335154040763,48.07831395266534
2026-09-29 19:44:06.694884864,0.08379150390625,-0.13885449218749998,10.179470703124998,0.0,0.0,0.0,359.5111566630616,359.41345984303734,48.07771434468437
2026-09-29 19:44:06.694884864,0.07182128906249999,-0.08618554687499999,10.14356005859375,0.0,-0.0010652644360316954,0.0,359.5104298998944,359.4141949933063,48.0774200375765
2026-09-29 19:44:06.710510592,0.09336767578124999,-0.10533789062499999,10.145954101562499,0.0,0.0,0.0010652644360316954,359.51083771283487,359.4140985748894,48.07773894077757
2026-09-29 19:44:06.726136576,0.09336767578124999,-0.124490234375,10.25847412109375,0.0,0.0,0.0,359.51102048524115,359.41377214513517,48.07775450599798
2026-09-29 19:44:06.742180608,0.08857958984374999,-0.12209619140624998,10.201017089843749,-0.0010652644360316954,0.0,0.0010652644360316954,359.5101558127873,359.41379106116415,48.078379095728025
2026-09-29 19:44:06.757815296,0.05266894531249999,-0.10294384765624999,10.217775390624999,0.0,0.0,0.0,359.5095468106641,359.4145685995356,48.07838620669538
2026-09-29 19:44:06.789066752,0.05027490234375,-0.0909736328125,10.157924316406248,0.0,-0.0010652644360316954,0.0,359.50957558725275,359.41505267414067,48.07839509154336
2026-09-29 19:44:06.820316672,0.0813974609375,-0.11730810546874999,10.179470703124998,0.0,-0.0021305288720633907,0.0,359.5093646897514,359.4150566746173,48.07841163713933
2026-09-29 19:44:06.835942400,0.07900341796874999,-0.13406640625,10.157924316406248,0.0,-0.0021305288720633907,0.0,359.508748154305,359.41490127711916,48.078124156517525
2026-09-29 19:44:06.835942400,0.08379150390625,-0.10533789062499999,10.162712402343749,0.0,0.0,0.0010652644360316954,359.5081384835036,359.415373328811,48.07844155217243
2026-09-29 19:44:06.835942400,0.11970214843749999,-0.09815576171875,10.16989453125,0.0,0.0,0.0,359.50767927745227,359.4156439633966,48.07845231213855
2026-09-29 19:44:06.851568384,0.10294384765624999,-0.09815576171875,10.19144091796875,0.0,0.0,0.0010652644360316954,359.5076579962419,359.4152375771462,48.078466826312884
2026-09-29 19:44:06.851568384,0.09336767578124999,-0.124490234375,10.16989453125,0.0,0.0,0.0,359.5078909653697,359.41495373054767,48.078482027752216
2026-09-29 19:44:06.851568384,0.08857958984374999,-0.15321875,10.160318359375,0.0,0.0,0.0,359.50791143432343,359.4153261442005,48.07818893599266
2026-09-29 19:44:06.867194368,0.04069873046875,-0.12688427734375,10.17707666015625,0.0,0.0,0.0,359.507295626075,359.4154730805516,48.077898741391216
2026-09-29 19:44:06.882819584,0.06942724609374999,-0.10773193359375,10.160318359375,0.0,-0.0010652644360316954,0.0,359.506997550176,359.4154637293519,48.07791629804359
2026-09-29 19:44:06.898444288,0.08857958984374999,-0.08618554687499999,10.201017089843749,0.0,-0.0010652644360316954,0.0,359.50746835084544,359.4149908412734,48.07793482793941
2026-09-29 19:44:06.898444288,0.11970214843749999,-0.10533789062499999,10.20819921875,0.0,0.0,0.0,359.50735158882065,359.4160202696923,48.07824508998112
2026-09-29 19:44:06.914070528,0.0909736328125,-0.11012597656249999,10.205805175781249,-0.0010652644360316954,-0.0010652644360316954,0.0,359.50588783797895,359.4161061613837,48.07825679248914
2026-09-29 19:44:06.914070528,0.11252001953124999,-0.1005498046875,10.1363779296875,0.0,0.0,0.0,359.50573499130695,359.41609598909224,48.077659728885386
2026-09-29 19:44:06.929696000,0.047880859374999994,-0.1292783203125,10.162712402343749,0.0,0.0010652644360316954,0.0,359.50551681840506,359.4169855090667,48.077665904668315
2026-09-29 19:44:06.929696000,0.055062988281249996,-0.09336767578124999,10.18665283203125,0.0,-0.0010652644360316954,0.0010652644360316954,359.50588160098744,359.4174265721092,48.0779826440466
2026-09-29 19:44:06.929696000,0.059851074218749994,-0.124490234375,10.184258789062499,0.0,-0.0010652644360316954,0.0,359.50548183257456,359.41720466302075,48.077997882789944
2026-09-29 19:44:06.929696000,0.07182128906249999,-0.10294384765624999,10.179470703124998,0.0,-0.0010652644360316954,0.0,359.5048296801225,359.41747114788416,48.07801317252441
2026-09-29 19:44:06.929696000,0.11970214843749999,-0.10533789062499999,10.1746826171875,-0.0010652644360316954,0.0,0.0010652644360316954,359.5043190398681,359.4181159728137,48.07863199556557
2026-09-29 19:44:06.960948480,0.0909736328125,-0.15082470703124998,10.13158984375,0.0,0.0010652644360316954,0.0,359.50477275493137,359.4188308091635,48.07833231622003
2026-09-29 19:44:06.960948480,0.05745703125,-0.0813974609375,10.16989453125,0.0,0.0,0.0,359.50433412859456,359.4187890223676,48.078348627196405
2026-09-29 19:44:06.976573184,0.09815576171875,-0.07421533203125,10.179470703124998,0.0,0.0,0.0,359.50463716500184,359.4195955365511,48.07835511540252
2026-09-29 19:44:06.976573184,0.08379150390625,-0.11252001953124999,10.2034111328125,0.0,-0.0010652644360316954,0.0,359.50427115335685,359.4198761137549,48.078975152630456
2026-09-29 19:44:06.992198400,0.067033203125,-0.10294384765624999,10.172288574218749,0.0,0.0,0.0,359.5040332886067,359.419834293749,48.07898938046243
2026-09-29 19:44:06.992198400,0.08618554687499999,-0.0813974609375,10.18186474609375,0.0,-0.0010652644360316954,0.0010652644360316954,359.5042681271002,359.41989941855445,48.0793070122075
2026-09-29 19:44:07.007823872,0.04069873046875,-0.13406640625,10.201017089843749,-0.0010652644360316954,-0.0010652644360316954,0.0,359.50379095445254,359.41985810524403,48.079317390158074
2026-09-29 19:44:07.007823872,0.06463916015625,-0.12209619140624998,10.17707666015625,0.0,0.0,0.0,359.5033720189419,359.4197399990066,48.07933620476878
2026-09-29 19:44:07.023453184,0.11012597656249999,-0.09815576171875,10.162712402343749,0.0,0.0,0.0010652644360316954,359.5033700022984,359.4199107779348,48.07965622514204
2026-09-29 19:44:07.039103488,0.059851074218749994,-0.11252001953124999,10.25368603515625,0.0,0.0,0.0,359.5034611174195,359.4204085284366,48.079661860224725
2026-09-29 19:44:07.039103488,0.10533789062499999,-0.10773193359375,10.1746826171875,-0.0010652644360316954,0.0,0.0010652644360316954,359.50292951579246,359.4211035141261,48.08028084312875
2026-09-29 19:44:07.054702080,0.13167236328124998,-0.10533789062499999,10.160318359375,0.0,0.0,0.0,359.50298373386477,359.42080508535383,48.08029513958097
2026-09-29 19:44:07.070351872,0.10294384765624999,-0.09576171874999999,10.14834814453125,0.0,0.0,0.0010652644360316954,359.5030868260319,359.4204824576158,48.08061677069762
2026-09-29 19:44:07.070351872,0.08379150390625,-0.10533789062499999,10.229745605468748,0.0,-0.0010652644360316954,0.0,359.5025842307442,359.42018616839147,48.08063051866066
2026-09-29 19:44:07.085953280,0.047880859374999994,-0.11970214843749999,10.196229003906248,0.0,0.0,0.0,359.50207603313095,359.42052793125555,48.080336622678345
2026-09-29 19:44:07.085953280,0.08857958984374999,-0.1149140625,10.179470703124998,0.0,0.0,0.0,359.50220211909476,359.4214792958635,48.08034804507861
2026-09-29 19:44:07.101576960,0.09336767578124999,-0.13406640625,10.18665283203125,0.0,0.0,0.0,359.5018366512887,359.42148172274744,48.08005833391655
2026-09-29 19:44:07.117227776,0.08618554687499999,-0.11252001953124999,10.234533691406249,0.0,-0.0010652644360316954,0.0,359.5019621391949,359.42145751589237,48.07976993066051
2026-09-29 19:44:07.117227776,0.09336767578124999,-0.16040087890625,10.179470703124998,0.0,0.0,0.0,359.5020622407403,359.42223664021145,48.07977856037638
2026-09-29 19:44:07.132855296,0.1005498046875,-0.12688427734375,10.21538134765625,0.0,0.0,0.0,359.5017364975049,359.42276012713444,48.07979140512285
2026-09-29 19:44:07.132855296,0.055062988281249996,-0.10533789062499999,10.201017089843749,-0.0010652644360316954,-0.0021305288720633907,0.0,359.50087040417554,359.4227104054697,48.07950060609753
2026-09-29 19:44:07.148526080,0.08857958984374999,-0.0909736328125,10.24889794921875,0.0,0.0,0.0,359.5007918312414,359.4234275836768,48.07889753709499
2026-09-29 19:44:07.180041728,0.09576171874999999,-0.13406640625,10.19144091796875,0.0,-0.0010652644360316954,0.0021305288720633907,359.5011369316083,359.4233231726717,48.07982423322549
2026-09-29 19:44:07.180041728,0.06942724609374999,-0.09576171874999999,10.157924316406248,0.0,0.0,0.0,359.50098340585254,359.4240281033542,48.07983539074428
2026-09-29 19:44:07.180041728,0.067033203125,-0.11730810546874999,10.18186474609375,0.0,-0.0010652644360316954,0.0,359.50047286685333,359.424375166672,48.07984659814946
2026-09-29 19:44:07.195682048,0.07421533203125,-0.12688427734375,10.141166015624998,0.0,0.0,0.0,359.50063943508917,359.42444253327676,48.0798597051426
2026-09-29 19:44:07.211326464,0.09576171874999999,-0.10294384765624999,10.172288574218749,0.0,0.0,0.0010652644360316954,359.50043997698276,359.42467988442485,48.08017600210543
2026-09-29 19:44:07.211326464,0.06463916015625,-0.10773193359375,10.19144091796875,0.0,-0.0021305288720633907,0.0,359.5005548979044,359.4243643178646,48.080192471120625
2026-09-29 19:44:07.227030528,0.06463916015625,-0.11970214843749999,10.18665283203125,0.0,0.0,0.0010652644360316954,359.5007547435401,359.42442385776206,48.08081553369943
2026-09-29 19:44:07.242558720,0.07182128906249999,-0.1149140625,10.16989453125,0.0,0.0010652644360316954,0.0010652644360316954,359.5003705462784,359.4249332325939,48.08143874521076
2026-09-29 19:44:07.242558720,0.1149140625,-0.059851074218749994,10.15313623046875,0.0,-0.0010652644360316954,0.0,359.5000736433471,359.42558338979916,48.081448232344705
2026-09-29 19:44:07.258183936,0.0909736328125,-0.1292783203125,10.16989453125,0.0,0.0,0.0010652644360316954,359.4997816273099,359.42575890625847,48.08206740642104
2026-09-29 19:44:07.258183936,0.0909736328125,-0.11970214843749999,10.157924316406248,0.0010652644360316954,0.0,0.0,359.50018525637785,359.42638330706296,48.08238101012131
2026-09-29 19:44:07.273808640,0.11252001953124999,-0.10533789062499999,10.239321777343749,-0.0010652644360316954,-0.0010652644360316954,0.0,359.4995947146883,359.42660421947994,48.08239311371168
2026-09-29 19:44:07.273808640,0.11012597656249999,-0.12688427734375,10.222563476562499,0.0,-0.0010652644360316954,0.0,359.49998009352646,359.4264610907736,48.08240718520373
2026-09-29 19:44:07.305060864,0.11012597656249999,-0.124490234375,10.189046874999999,0.0,-0.0010652644360316954,0.0,359.4995510302996,359.42605367005797,48.082731077813335
2026-09-29 19:44:07.320685824,0.09576171874999999,-0.13167236328124998,10.167500488281249,0.0,-0.0021305288720633907,0.0,359.4992884904502,359.42530427158016,48.08214046344241
2026-09-29 19:44:07.320685824,0.10533789062499999,-0.09576171874999999,10.179470703124998,0.0,0.0,0.0,359.4984782700494,359.42593617875787,48.08184683290647
2026-09-29 19:44:07.336310784,0.10773193359375,-0.08379150390625,10.160318359375,0.0,-0.0010652644360316954,0.0,359.498043929135,359.4260217075963,48.08124698882746
2026-09-29 19:44:07.336310784,0.10294384765624999,-0.0909736328125,10.251291992187499,0.0,0.0,0.0010652644360316954,359.49867395410257,359.42582187395556,48.0815637767702
2026-09-29 19:44:07.351978496,0.05027490234375,-0.09815576171875,10.21059326171875,0.0,-0.0021305288720633907,0.0010652644360316954,359.4982993676823,359.4254416822794,48.08188405426333
2026-09-29 19:44:07.351978496,0.09576171874999999,-0.11970214843749999,10.1651064453125,0.0,-0.0021305288720633907,0.0010652644360316954,359.4978319328485,359.4249411787607,48.08220790783502
2026-09-29 19:44:07.351978496,0.07421533203125,-0.12688427734375,10.246503906249998,0.0,-0.0010652644360316954,0.0,359.4974869186448,359.4247024599225,48.082225903791254
2026-09-29 19:44:07.383296256,0.0813974609375,-0.10294384765624999,10.205805175781249,0.0,0.0,0.0010652644360316954,359.49699392883497,359.424680564185,48.08254468925068
2026-09-29 19:44:07.383296256,0.1149140625,-0.09576171874999999,10.1938349609375,0.0,0.0,0.0,359.4964964616212,359.4249541189539,48.081945465598345
2026-09-29 19:44:07.400551424,0.0383046875,-0.13167236328124998,10.201017089843749,0.0010652644360316954,0.0,0.0,359.4966786405284,359.42534940591634,48.081342745912
2026-09-29 19:44:07.400551424,0.10533789062499999,-0.09576171874999999,10.14356005859375,0.0,-0.0010652644360316954,0.0,359.49625773716343,359.42594689605204,48.081353075629
2026-09-29 19:44:07.415662592,0.06942724609374999,-0.11012597656249999,10.22016943359375,0.0,0.0,0.0,359.49608263637106,359.4257937609701,48.081366645667316
2026-09-29 19:44:07.431293184,0.11252001953124999,-0.0909736328125,10.150742187499999,0.0,-0.0021305288720633907,0.0,359.49552356022053,359.4254878112069,48.08168879861105
2026-09-29 19:44:07.431293184,0.10294384765624999,-0.11970214843749999,10.1938349609375,0.0,-0.0010652644360316954,0.0010652644360316954,359.4953475138392,359.42468258597336,48.082318005883465
2026-09-29 19:44:07.446918144,0.067033203125,-0.08379150390625,10.227351562499999,0.0,-0.0010652644360316954,0.0,359.4950664591936,359.4244320872238,48.082030081576846
2026-09-29 19:44:07.446918144,0.05027490234375,-0.14364257812499998,10.145954101562499,0.0,0.0010652644360316954,0.0,359.49529710935224,359.42546838624156,48.082034525366794
2026-09-29 19:44:07.463197696,0.08618554687499999,-0.11970214843749999,10.167500488281249,0.0,-0.0010652644360316954,0.0,359.49463788776075,359.425956580802,48.08204721873129
2026-09-29 19:44:07.478202880,0.06463916015625,-0.10773193359375,10.1651064453125,0.0,0.0,-0.0010652644360316954,359.49442202291215,359.42637153626964,48.08144837472286
2026-09-29 19:44:07.478202880,0.06942724609374999,-0.11252001953124999,10.212987304687498,0.0,0.0,0.0,359.49416751481493,359.42680497518376,48.0811548748974
2026-09-29 19:44:07.509457920,0.055062988281249996,-0.13167236328124998,10.20819921875,0.0,0.0,0.0,359.49357794171357,359.4272003850778,48.081164171987346
2026-09-29 19:44:07.509457920,0.05266894531249999,-0.11730810546874999,10.2034111328125,0.0,0.0,0.0,359.493496777697,359.42767695395537,48.081177129892176
2026-09-29 19:44:07.525187584,0.1149140625,-0.0909736328125,10.1746826171875,0.0,0.0,0.0,359.49365207484783,359.4284687451483,48.0811877272996
2026-09-29 19:44:07.525187584,0.08618554687499999,-0.076609375,10.196229003906248,0.0,0.0,0.0,359.4935189566258,359.428562566533,48.080587824699926
2026-09-29 19:44:07.525187584,0.08857958984374999,-0.10773193359375,10.22495751953125,0.0,-0.0010652644360316954,0.0,359.49343217398416,359.42876007599693,48.080899856195366
2026-09-29 19:44:07.556336896,0.07421533203125,-0.0909736328125,10.201017089843749,0.0,0.0,0.0,359.4933789050876,359.42869975422326,48.080607074959005
2026-09-29 19:44:07.556336896,0.08618554687499999,-0.12209619140624998,10.124407714843748,0.0,0.0,0.0,359.4939379275537,359.4286756838014,48.08000908273703
2026-09-29 19:44:07.571998976,0.0909736328125,-0.124490234375,10.1938349609375,0.0,-0.0010652644360316954,0.0,359.49362039617904,359.4283364397678,48.08033188040437
2026-09-29 19:44:07.571998976,0.08379150390625,-0.10773193359375,10.17707666015625,0.0,-0.0010652644360316954,-0.0010652644360316954,359.4928934023054,359.4283263531925,48.07973764738985
2026-09-29 19:44:07.587688960,0.06942724609374999,-0.08618554687499999,10.19144091796875,0.0,0.0,0.0010652644360316954,359.4932610102388,359.42842605418855,48.07975185159343
2026-09-29 19:44:07.604172800,0.05027490234375,-0.14364257812499998,10.18186474609375,0.0,-0.0010652644360316954,0.0,359.4931683569694,359.42855146320557,48.079459387287734
2026-09-29 19:44:07.604172800,0.026334472656249996,-0.10773193359375,10.212987304687498,0.0,0.0,0.0010652644360316954,359.4936248996478,359.4288916970619,48.07977810895404
2026-09-29 19:44:07.604172800,0.047880859374999994,-0.11730810546874999,10.196229003906248,0.0,-0.0010652644360316954,0.0010652644360316954,359.4933496999559,359.4295138812438,48.08040017691282
2026-09-29 19:44:07.621561088,0.06942724609374999,-0.11252001953124999,10.157924316406248,0.0,-0.0021305288720633907,0.0,359.49276294663815,359.42979807320927,48.08041473669316
2026-09-29 19:44:07.635351040,0.08618554687499999,-0.08618554687499999,10.196229003906248,0.0,-0.0010652644360316954,0.0,359.49195822360025,359.4295106698246,48.08073635223591
2026-09-29 19:44:07.635351040,0.08379150390625,-0.09576171874999999,10.18186474609375,0.0,0.0010652644360316954,0.0,359.49185341173586,359.43044175085436,48.08043595784928
2026-09-29 19:44:07.650994176,0.09336767578124999,-0.09576171874999999,10.1746826171875,0.0,-0.0010652644360316954,0.0010652644360316954,359.49149800360317,359.4303680565821,48.08105837210013
2026-09-29 19:44:07.666716160,0.0909736328125,-0.11730810546874999,10.18186474609375,-0.0010652644360316954,0.0,0.0,359.491376377098,359.4306627172369,48.08106869878391
2026-09-29 19:44:07.666716160,0.047880859374999994,-0.10533789062499999,10.212987304687498,0.0,0.0,0.0,359.49102199264524,359.4307036373296,48.08077888352374
2026-09-29 19:44:07.729120000,0.07900341796874999,-0.09336767578124999,10.205805175781249,0.0,0.0,0.0,359.4918060124329,359.4309464396188,48.08079203422516
2026-09-29 19:44:07.744847616,0.07900341796874999,-0.12209619140624998,10.162712402343749,0.0,-0.0010652644360316954,0.0,359.4917804357179,359.4306671526446,48.08050166977874
2026-09-29 19:44:07.744847616,0.10294384765624999,-0.08618554687499999,10.16989453125,0.0,-0.0010652644360316954,0.0,359.49118022377667,359.43057486072695,48.08051648721877
2026-09-29 19:44:07.760477696,0.047880859374999994,-0.11012597656249999,10.2321396484375,0.0,-0.0010652644360316954,0.0,359.4913771191642,359.4304972307745,48.08052944135187
2026-09-29 19:44:07.760477696,0.12209619140624998,-0.09336767578124999,10.179470703124998,0.0,0.0,0.0,359.490858783282,359.43096382088333,48.08054059634411
2026-09-29 19:44:07.791728896,0.09576171874999999,-0.07900341796874999,10.160318359375,-0.0010652644360316954,-0.0010652644360316954,0.0,359.49016948510143,359.4310803738612,48.08024532440443
2026-09-29 19:44:07.791728896,0.08618554687499999,-0.11252001953124999,10.17707666015625,0.0,-0.0010652644360316954,0.0010652644360316954,359.49089034380773,359.4312293009444,48.08086615368403
2026-09-29 19:44:07.791728896,0.08618554687499999,-0.13885449218749998,10.155530273437499,0.0,-0.0010652644360316954,0.0,359.49066097079526,359.4309739374417,48.08088299416334
2026-09-29 19:44:07.791728896,0.0909736328125,-0.12209619140624998,10.201017089843749,0.0,-0.0021305288720633907,0.0010652644360316954,359.48992809809766,359.430698323298,48.08120698178928
2026-09-29 19:44:07.791728896,0.08857958984374999,-0.11970214843749999,10.251291992187499,-0.0010652644360316954,-0.0010652644360316954,0.0,359.48931720037314,359.4304519740249,48.08152965002742
2026-09-29 19:44:07.791728896,0.09336767578124999,-0.09815576171875,10.141166015624998,0.0,-0.0010652644360316954,0.0021305288720633907,359.48906617204295,359.4300276709175,48.08215701334921
2026-09-29 19:44:07.791728896,0.09576171874999999,-0.10773193359375,10.160318359375,0.0,-0.0010652644360316954,0.0,359.48882590159303,359.42994614684517,48.08217112237548
2026-09-29 19:44:07.791728896,0.07421533203125,-0.1005498046875,10.179470703124998,0.0,0.0,0.0,359.48941259730884,359.4294534542529,48.0818807472263
2026-09-29 19:44:07.822980096,0.035910644531249994,-0.1149140625,10.184258789062499,0.0,-0.0021305288720633907,0.0010652644360316954,359.48951353553036,359.42912970916433,48.082507533206325
2026-09-29 19:44:07.822980096,0.0813974609375,-0.1149140625,10.205805175781249,0.0,-0.0010652644360316954,0.0010652644360316954,359.48930017774074,359.42909681867826,48.082829311494315
2026-09-29 19:44:07.838644480,0.1005498046875,-0.11012597656249999,10.1651064453125,0.0,-0.0021305288720633907,0.0010652644360316954,359.48859967825115,359.4285239718382,48.08315566265565
2026-09-29 19:44:07.854231296,0.067033203125,-0.11012597656249999,10.172288574218749,0.0,0.0,0.0,359.48829314480605,359.4289810422495,48.08347294225636
2026-09-29 19:44:07.854231296,0.07421533203125,-0.10773193359375,10.14834814453125,0.0,-0.0010652644360316954,0.0,359.48810924804457,359.42902908311,48.08379179576964
2026-09-29 19:44:07.854231296,0.09336767578124999,-0.15082470703124998,10.1651064453125,0.0,-0.0010652644360316954,0.0,359.48796690331955,359.42884673662627,48.08380777738645
2026-09-29 19:44:07.885504000,0.0813974609375,-0.11730810546874999,10.21538134765625,0.0,0.0,0.0,359.48776288438137,359.4289085631841,48.08382200986431
2026-09-29 19:44:07.885504000,0.0383046875,-0.12209619140624998,10.1746826171875,0.0,0.0,0.0,359.487260187571,359.4292830314583,48.08322267712508
2026-09-29 19:44:07.885504000,0.0909736328125,-0.09815576171875,10.198623046875,0.0,0.0,0.0,359.4870424186227,359.42984496397565,48.08323398711756
2026-09-29 19:44:07.901725184,0.10533789062499999,-0.09576171874999999,10.133983886718749,0.0,0.0,0.0010652644360316954,359.48687461586223,359.43034286864736,48.0835472191203
2026-09-29 19:44:07.917229824,0.1005498046875,-0.12688427734375,10.198623046875,0.0,0.0,0.0,359.487170789513,359.4301838985759,48.08355919000222
2026-09-29 19:44:07.932860416,0.08857958984374999,-0.1005498046875,10.18665283203125,0.0,-0.0010652644360316954,0.0010652644360316954,359.48695454910126,359.4306135623941,48.083570335687064
2026-09-29 19:44:07.959104000,0.10773193359375,-0.09576171874999999,10.172288574218749,0.0,-0.0010652644360316954,0.0021305288720633907,359.4861757563092,359.43059730403866,48.08419418978586
2026-09-29 19:44:07.959104000,0.08857958984374999,-0.1005498046875,10.14356005859375,-0.0010652644360316954,-0.0010652644360316954,0.0,359.48521128574066,359.4305605805739,48.084511539484986
2026-09-29 19:44:07.964298752,0.08618554687499999,-0.0909736328125,10.212987304687498,0.0,0.0,0.0,359.4848862315622,359.4309561695645,48.08452391337713
2026-09-29 19:44:07.979929088,0.07421533203125,-0.11730810546874999,10.19144091796875,0.0,0.0,0.0,359.48480895412075,359.43124800339973,48.08422855301634
2026-09-29 19:44:07.979929088,0.10533789062499999,-0.0813974609375,10.1746826171875,0.0,0.0,0.0,359.4844802581165,359.4319565341082,48.08423826380309
2026-09-29 19:44:07.979929088,0.08379150390625,-0.09576171874999999,10.22016943359375,0.0,0.0,0.0,359.48414618985066,359.4323661864032,48.08424765415768
2026-09-29 19:44:07.995555584,0.07421533203125,-0.09815576171875,10.179470703124998,0.0,0.0,0.0010652644360316954,359.48451506802934,359.4325473352215,48.08486906516223
2026-09-29 19:44:08.011181312,0.10773193359375,-0.0813974609375,10.1651064453125,0.0,-0.0010652644360316954,0.0,359.48443088100885,359.4327142887307,48.0848818855202
2026-09-29 19:44:08.011181312,0.10294384765624999,-0.08379150390625,10.150742187499999,0.0010652644360316954,0.0010652644360316954,0.0,359.4849726641068,359.4333752657138,48.0848861831239
2026-09-29 19:44:08.026806016,0.043092773437499995,-0.14603662109374999,10.189046874999999,0.0,0.0,0.0,359.4851807935546,359.43419233098825,48.08489068689566
2026-09-29 19:44:08.026806016,0.07900341796874999,-0.09576171874999999,10.160318359375,0.0,-0.0010652644360316954,0.0,359.48486249545994,359.4347266642326,48.08459776509131
2026-09-29 19:44:08.042431488,0.076609375,-0.10533789062499999,10.19144091796875,0.0,0.0,0.0010652644360316954,359.48451186226293,359.4346429532123,48.08491509908506
2026-09-29 19:44:08.073681664,0.10533789062499999,-0.10294384765624999,10.16989453125,0.0,0.0,0.0,359.48399279146446,359.4349150881291,48.08492637286965
2026-09-29 19:44:08.073681664,0.05266894531249999,-0.11252001953124999,10.201017089843749,0.0,-0.0010652644360316954,0.0,359.483262807859,359.4348818745605,48.08493938139018
2026-09-29 19:44:08.073681664,0.1149140625,-0.13885449218749998,10.1746826171875,0.0,-0.0010652644360316954,0.0,359.4829418022662,359.43507548224244,48.08525944515365
2026-09-29 19:44:08.073681664,0.09815576171875,-0.10773193359375,10.198623046875,0.0,0.0,0.0,359.48262876208423,359.43592824298435,48.084960915941714
2026-09-29 19:44:08.104933120,0.08857958984374999,-0.09336767578124999,10.18186474609375,0.0,-0.0010652644360316954,0.0,359.4818256813417,359.43561280711936,48.08467225161929
2026-09-29 19:44:08.136183808,0.08379150390625,-0.10773193359375,10.205805175781249,0.0,0.0,0.0,359.4816699844433,359.43586985378124,48.08468282120533
2026-09-29 19:44:08.167434752,0.07900341796874999,-0.09576171874999999,10.117225585937499,0.0,0.0,0.0,359.48173537879126,359.4359646826129,48.084083867749584
2026-09-29 19:44:08.167434752,0.05027490234375,-0.1149140625,10.212987304687498,0.0,0.0,0.0,359.4816189721524,359.43639935239656,48.08378891955668
2026-09-29 19:44:08.183062784,0.10533789062499999,-0.09576171874999999,10.196229003906248,-0.0010652644360316954,-0.0010652644360316954,0.0010652644360316954,359.48063835730045,359.4368877997995,48.08441179567484
2026-09-29 19:44:08.198686208,0.07182128906249999,-0.08857958984374999,10.15313623046875,0.0,0.0,0.0010652644360316954,359.4808916535822,359.43704398977724,48.08503162184375
2026-09-29 19:44:08.198686208,0.1149140625,-0.0909736328125,10.18186474609375,0.0,0.0,0.0,359.48107697072106,359.4370067052504,48.08534975626039
2026-09-29 19:44:08.214311680,0.076609375,-0.11730810546874999,10.217775390624999,0.0,0.0,0.0,359.48115078173925,359.43701201905867,48.0853611371962
2026-09-29 19:44:08.245562624,0.09336767578124999,-0.13646044921875,10.14356005859375,0.0,-0.0010652644360316954,0.0010652644360316954,359.48085199178547,359.4367161214842,48.08568372578031
2026-09-29 19:44:08.261187584,0.059851074218749994,-0.09336767578124999,10.217775390624999,0.0010652644360316954,0.0,0.0,359.48155630375413,359.43664142025267,48.08600282291872
2026-09-29 19:44:08.261187584,0.07421533203125,-0.11730810546874999,10.229745605468748,0.0,-0.0010652644360316954,0.0,359.48147518322037,359.4368322396103,48.08571033283029
2026-09-29 19:44:08.261187584,0.07900341796874999,-0.12688427734375,10.150742187499999,0.0,0.0,0.0,359.4810328566678,359.4369390136397,48.08541828827014
2026-09-29 19:44:08.261187584,0.09336767578124999,-0.11012597656249999,10.16989453125,0.0,0.0,0.0,359.48081820645865,359.4368292143019,48.084821966144666
2026-09-29 19:44:08.261187584,0.09576171874999999,-0.1005498046875,10.1746826171875,0.0,0.0,0.0,359.4809281701602,359.437095250065,48.08483296144973
2026-09-29 19:44:08.261187584,0.0622451171875,-0.11012597656249999,10.1938349609375,0.0,0.0,0.0,359.48143542320736,359.4366448572565,48.08484861037231
2026-09-29 19:44:08.276813824,0.059851074218749994,-0.11970214843749999,10.16989453125,0.0010652644360316954,0.0,0.0,359.4821904201284,359.43766484161375,48.084246150699464
2026-09-29 19:44:08.292439296,0.06942724609374999,-0.11970214843749999,10.167500488281249,0.0,-0.0010652644360316954,0.0,359.48213979453953,359.4393188883581,48.0849172916889
2026-09-29 19:44:08.308090112,0.08857958984374999,-0.0909736328125,10.150742187499999,0.0,0.0,0.0,359.4823849088738,359.43973778521445,48.08462482588706
2026-09-29 19:44:08.323691008,0.10773193359375,-0.13167236328124998,10.201017089843749,0.0,0.0,0.0,359.4820871347213,359.4399632305653,48.0852470875942
2026-09-29 19:44:08.323691008,0.14124853515625,-0.09815576171875,10.179470703124998,0.0,-0.0021305288720633907,0.0,359.48141743771066,359.4394933985011,48.084960014424595
2026-09-29 19:44:08.339316224,0.11252001953124999,-0.13406640625,10.11004345703125,0.0,-0.0010652644360316954,0.0,359.4808126727439,359.4389891127659,48.084974822162096
2026-09-29 19:44:08.355094528,0.09336767578124999,-0.13406640625,10.2034111328125,0.0,0.0,0.0,359.4809607916858,359.43926208392975,48.08498551443671
2026-09-29 19:44:08.370724096,0.08379150390625,-0.10773193359375,10.1651064453125,0.0,0.0,0.0,359.4807420124639,359.43927510500873,48.084999574127814
2026-09-29 19:44:08.370724096,0.08857958984374999,-0.12209619140624998,10.227351562499999,0.0,-0.0010652644360316954,0.0,359.4805615200667,359.4392725641568,48.085013094128016
2026-09-29 19:44:08.401975808,0.06942724609374999,-0.07900341796874999,10.2321396484375,0.0,0.0,0.0,359.48003942973486,359.4395840454981,48.08532946179947
2026-09-29 19:44:08.417601024,0.08618554687499999,-0.11970214843749999,10.1651064453125,0.0,0.0,0.0,359.48064615598236,359.43988908246547,48.08534130614112
2026-09-29 19:44:08.417601024,0.047880859374999994,-0.11970214843749999,10.162712402343749,0.0,-0.0010652644360316954,0.0,359.4802058523138,359.44024187398765,48.08504655030976
2026-09-29 19:44:08.433226496,0.07900341796874999,-0.059851074218749994,10.155530273437499,0.0,-0.0010652644360316954,0.0,359.4803062216556,359.4402641013182,48.08506313384565
2026-09-29 19:44:08.448851712,0.05745703125,-0.1149140625,10.155530273437499,0.0,0.0,0.0010652644360316954,359.48071737686695,359.44017294839324,48.08568410862049
2026-09-29 19:44:08.464477952,0.08379150390625,-0.12209619140624998,10.19144091796875,0.0,0.0,0.0,359.4804869395342,359.4408806457219,48.08539032299405
2026-09-29 19:44:08.464477952,0.08857958984374999,-0.14124853515625,10.1651064453125,-0.0021305288720633907,-0.0021305288720633907,0.0010652644360316954,359.47958956338067,359.44083928427864,48.08571278607086
2026-09-29 19:44:08.464477952,0.08379150390625,-0.12209619140624998,10.1363779296875,0.0,-0.0010652644360316954,0.0010652644360316954,359.47849274772955,359.440887599613,48.08603454792195
2026-09-29 19:44:08.464477952,0.08618554687499999,-0.13885449218749998,10.17707666015625,0.0,0.0,0.0,359.4781626503745,359.44124740151125,48.08543066152929
2026-09-29 19:44:08.464477952,0.08379150390625,-0.13406640625,10.14356005859375,0.0,0.0,0.0,359.47861148730317,359.4412417842043,48.08544420823787
2026-09-29 19:44:08.464477952,0.0622451171875,-0.10294384765624999,10.18665283203125,0.0,0.0,0.0,359.4782630417628,359.4411289438545,48.08545951414531
2026-09-29 19:44:08.495729408,0.08618554687499999,-0.11012597656249999,10.15313623046875,0.0,-0.0021305288720633907,0.0021305288720633907,359.47833661698786,359.4406487123875,48.085781391487224
2026-09-29 19:44:08.495729408,0.11252001953124999,-0.12688427734375,10.201017089843749,0.0,-0.0021305288720633907,0.0,359.47823882117166,359.44000545577825,48.08579973513445
2026-09-29 19:44:08.511354368,0.07900341796874999,-0.11730810546874999,10.1651064453125,0.0,0.0010652644360316954,0.0010652644360316954,359.47836906138815,359.4404332010297,48.08611287120971
2026-09-29 19:44:08.527003136,0.055062988281249996,-0.11252001953124999,10.21059326171875,0.0,0.0,0.0,359.47875896124395,359.4404424437442,48.086431955907194
2026-09-29 19:44:08.527003136,0.06463916015625,-0.12209619140624998,10.21059326171875,0.0,-0.0010652644360316954,0.0,359.47845459362446,359.4403429905332,48.086141428502565
2026-09-29 19:44:08.527003136,0.1292783203125,-0.07900341796874999,10.095679199218749,0.0,0.0,0.0,359.4783497847049,359.4409527063006,48.08615146026311
2026-09-29 19:44:08.558262528,0.08379150390625,-0.09815576171875,10.189046874999999,0.0,-0.0010652644360316954,0.0,359.47825214089283,359.4408003154302,48.086164281134934
2026-09-29 19:44:08.558262528,0.11012597656249999,-0.11252001953124999,10.150742187499999,-0.0010652644360316954,-0.0010652644360316954,0.0,359.47748308319603,359.44054143223053,48.085869502898895
2026-09-29 19:44:08.558262528,0.05745703125,-0.10294384765624999,10.22016943359375,0.0,0.0,0.0,359.47749285449987,359.4406405260399,48.08588135576875
2026-09-29 19:44:08.573882880,0.10773193359375,-0.11012597656249999,10.198623046875,0.0,-0.0021305288720633907,0.0,359.4773758990801,359.44077906847764,48.08558920488702
2026-09-29 19:44:08.639746304,0.0622451171875,-0.08618554687499999,10.184258789062499,0.0,-0.0010652644360316954,0.0010652644360316954,359.4769885776212,359.4406196674764,48.08590697540715
2026-09-29 19:44:08.639746304,0.1005498046875,-0.1149140625,10.205805175781249,0.0,0.0,0.0,359.4773589638557,359.4409858362756,48.085915357943186
2026-09-29 19:44:08.667880192,0.11012597656249999,-0.10533789062499999,10.1651064453125,0.0,0.0,0.0010652644360316954,359.47721499059026,359.4413152540416,48.085925728297724
2026-09-29 19:44:08.667880192,0.09815576171875,-0.10533789062499999,10.179470703124998,0.0,0.0,0.0,359.4772176206179,359.4413069602045,48.08563537575528
2026-09-29 19:44:08.705604096,0.0335166015625,-0.13646044921875,10.18186474609375,0.0,0.0,0.0021305288720633907,359.4771878875194,359.4409597606497,48.08595539893333
2026-09-29 19:44:08.705604096,0.09336767578124999,-0.1149140625,10.162712402343749,0.0,-0.0010652644360316954,0.0,359.47688114590676,359.44145610480973,48.08596752326452
2026-09-29 19:44:08.705604096,0.09815576171875,-0.0813974609375,10.172288574218749,0.0,-0.0010652644360316954,0.0,359.47723726778435,359.4411559801039,48.085981687706095
2026-09-29 19:44:08.715108608,0.09815576171875,-0.10294384765624999,10.201017089843749,0.0,0.0,0.0,359.47743421853,359.4413746774303,48.08599180943345
2026-09-29 19:44:08.715108608,0.07182128906249999,-0.09336767578124999,10.2034111328125,-0.0010652644360316954,-0.0010652644360316954,0.0010652644360316954,359.47680526484186,359.4413628344141,48.08661410341102
2026-09-29 19:44:08.715108608,0.07900341796874999,-0.09576171874999999,10.19144091796875,0.0,-0.0021305288720633907,0.0,359.47634746164726,359.4415821456548,48.08632223696289
2026-09-29 19:44:08.715108608,0.06463916015625,-0.11252001953124999,10.157924316406248,0.0,0.0,0.0,359.47648377979147,359.44171056799553,48.08633580796994
2026-09-29 19:44:08.715108608,0.08857958984374999,-0.15561279296875,10.217775390624999,0.0,0.0,0.0,359.4765874215215,359.44192601837443,48.08634689777071
2026-09-29 19:44:08.715108608,0.05266894531249999,-0.06463916015625,10.1651064453125,0.0,0.0,0.0,359.47619243884503,359.4419467165394,48.08636255611094
2026-09-29 19:44:08.762016256,0.076609375,-0.13885449218749998,10.196229003906248,0.0,0.0,0.0,359.47612569719985,359.44216245229575,48.0863750164983
2026-09-29 19:44:08.762016256,0.08618554687499999,-0.08618554687499999,10.14356005859375,0.0,0.0,0.0,359.4757775284985,359.44249572448746,48.08577705012615
2026-09-29 19:44:08.793240576,0.09576171874999999,-0.09576171874999999,10.189046874999999,-0.0010652644360316954,-0.0010652644360316954,0.0,359.47499267184844,359.4432574992602,48.08608739122202
2026-09-29 19:44:08.793240576,0.043092773437499995,-0.11012597656249999,10.201017089843749,-0.0010652644360316954,-0.0021305288720633907,0.0,359.47459992675147,359.44312971549544,48.08610296786441
2026-09-29 19:44:08.824491776,0.05266894531249999,-0.09815576171875,10.172288574218749,0.0,-0.0010652644360316954,0.0,359.4740657132855,359.4437152269517,48.08580903088032
2026-09-29 19:44:08.824491776,0.09336767578124999,-0.10294384765624999,10.157924316406248,0.0,0.0,0.0,359.4744862420346,359.4440335195538,48.0855147788795
2026-09-29 19:44:08.824491776,0.09815576171875,-0.124490234375,10.20819921875,0.0,0.0,0.0,359.47482118425825,359.4440274901665,48.08522406947016
2026-09-29 19:44:08.855742976,0.0622451171875,-0.1292783203125,10.1746826171875,0.0,0.0,0.0,359.47515956355466,359.44374810423886,48.084933437755346
2026-09-29 19:44:08.855742976,0.10533789062499999,-0.12209619140624998,10.172288574218749,0.0,0.0,0.0,359.4748578884467,359.44453211599904,48.084942738048525
2026-09-29 19:44:08.855742976,0.0622451171875,-0.09815576171875,10.155530273437499,0.0,0.0,0.0,359.4752092857078,359.444278242628,48.08465188428805
2026-09-29 19:44:08.871369472,0.05266894531249999,-0.13406640625,10.244109863281249,0.0,-0.0021305288720633907,0.0,359.47457748650737,359.44376347612945,48.084672551744674
2026-09-29 19:44:08.871369472,0.06463916015625,-0.09576171874999999,10.205805175781249,0.0,-0.0010652644360316954,0.0,359.4742692341098,359.4436985835441,48.08438508672359
2026-09-29 19:44:08.871369472,0.09336767578124999,-0.11252001953124999,10.227351562499999,0.0,0.0,0.0,359.47405705910245,359.44377694545625,48.08378859655604
2026-09-29 19:44:08.871369472,0.07421533203125,-0.10294384765624999,10.184258789062499,0.0010652644360316954,0.0,0.0,359.4741862680022,359.4444729780693,48.08379660330783
2026-09-29 19:44:08.871369472,0.08857958984374999,-0.11730810546874999,10.18665283203125,0.0,0.0,0.0021305288720633907,359.47397328991644,359.4444193703875,48.084725949849684
2026-09-29 19:44:08.871369472,0.1005498046875,-0.13646044921875,10.198623046875,0.0,0.0,0.0,359.47404667451366,359.44488601312327,48.08473445822897
2026-09-29 19:44:08.871369472,0.08857958984374999,-0.10294384765624999,10.1938349609375,0.0,0.0,0.0,359.4740255850132,359.44466032766405,48.08474944660785
2026-09-29 19:44:08.902622208,0.0813974609375,-0.09336767578124999,10.212987304687498,0.0,0.0,0.0,359.4740463849155,359.44479540360174,48.08476108875722
2026-09-29 19:44:08.902622208,0.07182128906249999,-0.14124853515625,10.141166015624998,0.0,-0.0021305288720633907,0.0,359.4739203684851,359.44435942831126,48.084777098290935
2026-09-29 19:44:08.902622208,0.06463916015625,-0.08379150390625,10.22495751953125,0.0,0.0,0.0010652644360316954,359.4732423316749,359.4457294282547,48.085391497421064
2026-09-29 19:44:08.902622208,0.05745703125,-0.14364257812499998,10.179470703124998,0.0010652644360316954,0.0,0.0,359.47442110679305,359.4462036768052,48.085095876253426
2026-09-29 19:44:08.933872128,0.10773193359375,-0.08379150390625,10.155530273437499,0.0,-0.0010652644360316954,0.0010652644360316954,359.474041987052,359.4463599850548,48.085111328675666
2026-09-29 19:44:08.933872128,0.09336767578124999,-0.11012597656249999,10.14356005859375,0.0,-0.0010652644360316954,0.0010652644360316954,359.47415906434867,359.44652822306193,48.085424455612056
2026-09-29 19:44:08.933872128,0.08618554687499999,-0.11012597656249999,10.150742187499999,0.0,-0.0021305288720633907,0.0,359.4740658041262,359.4461538701321,48.085745135730214
2026-09-29 19:44:08.980882944,0.08857958984374999,-0.12209619140624998,10.1938349609375,0.0,0.0,0.0,359.47397819569215,359.44673451873336,48.08575222032137
2026-09-29 19:44:08.980882944,0.047880859374999994,-0.11012597656249999,10.157924316406248,0.0,0.0,0.0,359.4734283051356,359.44695800360137,48.085763624662164
2026-09-29 19:44:09.012138496,0.06942724609374999,-0.1149140625,10.205805175781249,0.0,0.0,0.0,359.473316710831,359.4472272443628,48.08547134419224
2026-09-29 19:44:09.012138496,0.07182128906249999,-0.11970214843749999,10.141166015624998,0.0,-0.0010652644360316954,0.0,359.47271241731534,359.44730629990215,48.08579120442469
2026-09-29 19:44:09.012138496,0.08618554687499999,-0.1149140625,10.21538134765625,0.0,0.0,0.0,359.47244304226166,359.44757521928193,48.08549764778468
2026-09-29 19:44:09.012138496,0.0622451171875,-0.12209619140624998,10.244109863281249,0.0,-0.0010652644360316954,0.0,359.4722684844556,359.4480765087818,48.085505660200745
2026-09-29 19:44:09.012138496,0.10294384765624999,-0.12688427734375,10.21538134765625,0.0,0.0,0.0,359.47205642277345,359.44893588896576,48.08551380320755
2026-09-29 19:44:09.012138496,0.06942724609374999,-0.11730810546874999,10.150742187499999,0.0,0.0,0.0,359.4721650030022,359.44943270796193,48.08521673157127
2026-09-29 19:44:09.059016448,0.067033203125,-0.13167236328124998,10.222563476562499,-0.0010652644360316954,-0.0010652644360316954,0.0010652644360316954,359.4707383477066,359.44982264839,48.085535792227084
2026-09-29 19:44:09.059016448,0.08379150390625,-0.08379150390625,10.205805175781249,0.0,-0.0021305288720633907,0.0,359.47016949901763,359.44958960182163,48.085552956377356
2026-09-29 19:44:09.090267392,0.08618554687499999,-0.1005498046875,10.198623046875,0.0,-0.0010652644360316954,0.0,359.4703791679524,359.44959215410995,48.08556292392389
2026-09-29 19:44:09.090267392,0.05266894531249999,-0.07421533203125,10.14356005859375,0.0,-0.0021305288720633907,0.0010652644360316954,359.4703896260219,359.4495602270789,48.085879806963646
2026-09-29 19:44:09.090267392,0.0622451171875,-0.13406640625,10.160318359375,0.0,-0.0010652644360316954,0.0,359.46976686598543,359.45015576493967,48.085583791891445
2026-09-29 19:44:09.090267392,0.11970214843749999,-0.1149140625,10.18186474609375,0.0,0.0,-0.0010652644360316954,359.4698432419704,359.45028271128086,48.084682467890055
2026-09-29 19:44:09.121517312,0.076609375,-0.10294384765624999,10.18665283203125,0.0,0.0,0.0021305288720633907,359.469319586365,359.4504811077211,48.08560906272456
2026-09-29 19:44:09.137142016,0.047880859374999994,-0.12209619140624998,10.172288574218749,0.0,-0.0010652644360316954,0.0010652644360316954,359.46947849185693,359.4506061754133,48.085927485307444
2026-09-29 19:44:09.137142016,0.10294384765624999,-0.09815576171875,10.239321777343749,0.0,0.0,0.0,359.4692145315682,359.45043520188335,48.08594469461208
2026-09-29 19:44:09.152768000,0.07182128906249999,-0.0909736328125,10.138771972656249,-0.0010652644360316954,-0.0010652644360316954,0.0,359.46857487083133,359.45060757037044,48.08534361724722
2026-09-29 19:44:09.152768000,0.09815576171875,-0.11730810546874999,10.205805175781249,0.0,0.0,0.0,359.4682974271137,359.4507404761579,48.08535232874498
2026-09-29 19:44:09.168393728,0.08857958984374999,-0.124490234375,10.145954101562499,0.0,0.0,0.0,359.469364057707,359.45066505773366,48.08536573124906
2026-09-29 19:44:09.168393728,0.05745703125,-0.12688427734375,10.198623046875,0.0,-0.0021305288720633907,-0.0010652644360316954,359.46922658024897,359.450417728106,48.084466324426195
2026-09-29 19:44:09.168393728,0.059851074218749994,-0.08618554687499999,10.1746826171875,0.0,-0.0010652644360316954,0.0010652644360316954,359.4688709516045,359.4502927324104,48.08478955899463
2026-09-29 19:44:09.168393728,0.13406640625,-0.08618554687499999,10.1746826171875,0.0,0.0,0.0,359.4685775193884,359.45046397963455,48.0848014212588
2026-09-29 19:44:09.184019200,0.047880859374999994,-0.12209619140624998,10.236927734375,0.0,-0.0010652644360316954,0.0010652644360316954,359.46844040341904,359.45012667928086,48.08542480998357
2026-09-29 19:44:09.216412928,0.14124853515625,-0.1149140625,10.172288574218749,0.0,0.0,0.0,359.468446750456,359.45003928221576,48.08544241502093
2026-09-29 19:44:09.247053312,0.0813974609375,-0.09336767578124999,10.14834814453125,0.0,-0.0010652644360316954,0.0,359.4678366920481,359.44972328453986,48.08484680532343
2026-09-29 19:44:09.247053312,0.1005498046875,-0.1149140625,10.167500488281249,0.0,0.0,0.0,359.4682528009683,359.450318961287,48.084546814846405
2026-09-29 19:44:09.278328320,0.0813974609375,-0.11012597656249999,10.11961962890625,0.0,0.0,0.0,359.46781258124355,359.4502952588145,48.084862249115055
2026-09-29 19:44:09.293930496,0.1005498046875,-0.13167236328124998,10.172288574218749,0.0,-0.0021305288720633907,0.0,359.467558817022,359.4500392166168,48.08487954852944
2026-09-29 19:44:09.309553920,0.10773193359375,-0.11012597656249999,10.24889794921875,0.0,-0.0010652644360316954,0.0010652644360316954,359.4676129848126,359.4494929629316,48.085509722488446
2026-09-29 19:44:09.325178880,0.10773193359375,-0.07900341796874999,10.2417158203125,0.0,0.0,0.0,359.46808415000174,359.4493867601401,48.08582811597134
