Timestamp,ax,ay,az,gx,gy,gz,roll,pitch,yaw
2026-09-29 19:10:47.474937916,0.24658642578124998,-0.36628857421875,10.234533691406249,0.0,-0.0010652644360316954,-0.0010652644360316954,358.01571932733765,358.84930111375064,38.61685094056953
2026-09-29 19:10:47.474937916,0.24898046875,-0.34474218749999996,10.167500488281249,0.0,0.0,0.0,358.0157723947791,358.8492211604325,38.6164365899421
2026-09-29 19:10:47.498688221,0.23701025390624997,-0.30404345703124996,10.201017089843749,-0.0010652644360316954,0.0,0.0,358.01552212019885,358.84897030717184,38.61663641740521
2026-09-29 19:10:47.503728627,0.2154638671875,-0.35671240234374996,10.1938349609375,0.0,-0.0010652644360316954,0.0,358.0157889745946,358.8484554384701,38.617147593799245
2026-09-29 19:10:47.513728142,0.27531494140624996,-0.34474218749999996,10.18186474609375,0.0,0.0,0.0010652644360316954,358.0152817966131,358.84852214478167,38.6179625833501
2026-09-29 19:10:47.526661395,0.22025195312499998,-0.34234814453124995,10.196229003906248,0.0,-0.0010652644360316954,0.0,358.0157467443899,358.848259182321,38.61846090046133
2026-09-29 19:10:47.533385038,0.26573876953125,-0.31601367187499996,10.205805175781249,0.0,-0.0010652644360316954,0.0,358.01590591064627,358.8481960722075,38.61866484049052
2026-09-29 19:10:47.535020112,0.18912939453125,-0.35192431640625,10.179470703124998,0.0,0.0,0.0,358.0161212165145,358.8482474027304,38.61885708563864
2026-09-29 19:10:47.553062677,0.23701025390624997,-0.32798388671874995,10.112437499999999,-0.0010652644360316954,-0.0010652644360316954,0.0,358.0160845406696,358.84836260896566,38.618438493885286
2026-09-29 19:10:47.567060947,0.20349365234374997,-0.32558984375,10.160318359375,0.0,0.0,0.0,358.01606877837946,358.84809622655484,38.618029896971926
2026-09-29 19:10:47.573326588,0.229828125,-0.35671240234374996,10.184258789062499,0.0,-0.0021305288720633907,0.0,358.0164324129248,358.84783511766955,38.617935405366524
2026-09-29 19:10:47.585271835,0.22743408203124998,-0.33995410156249994,10.18665283203125,0.0,0.0,0.0,358.01614623902793,358.8477682057083,38.618447159492696
2026-09-29 19:10:47.585271835,0.25616259765625,-0.32558984375,10.189046874999999,0.0,-0.0010652644360316954,0.0,358.01643492427877,358.8476424662236,38.618038670265484
2026-09-29 19:10:47.601678610,0.23701025390624997,-0.34474218749999996,10.189046874999999,0.0,-0.0010652644360316954,0.0,358.01699834571605,358.84786157710096,38.618223953520065
2026-09-29 19:10:47.601678610,0.24898046875,-0.34713623046875,10.2704443359375,0.0,-0.0010652644360316954,0.0,358.0168840593388,358.8474176022061,38.618437836081604
2026-09-29 19:10:47.617993116,0.23940429687499998,-0.34713623046875,10.20819921875,0.0,0.0,0.0,358.01775524895197,358.8463027546922,38.61836646895382
2026-09-29 19:10:47.617993116,0.23461621093749999,-0.33037792968749996,10.212987304687498,-0.0021305288720633907,-0.0010652644360316954,0.0,358.017461605046,358.8459392181343,38.61888273963601
2026-09-29 19:10:47.634486198,0.23940429687499998,-0.31361962890624995,10.196229003906248,0.0,-0.0010652644360316954,0.0,358.01759040669157,358.845434486608,38.61879731441319
2026-09-29 19:10:47.651299238,0.28010302734375,-0.33995410156249994,10.189046874999999,0.0,0.0,0.0,358.0184584304787,358.8450501225339,38.61899918588623
2026-09-29 19:10:47.651299238,0.23701025390624997,-0.35192431640625,10.14834814453125,0.0,-0.0010652644360316954,0.0,358.0178885458278,358.8445049400001,38.61920999315162
2026-09-29 19:10:47.667747021,0.23701025390624997,-0.36150048828125,10.14834814453125,0.0,-0.0010652644360316954,0.0,358.0179238123146,358.8438565196425,38.61943747464572
2026-09-29 19:10:47.684145212,0.28010302734375,-0.37107666015624996,10.244109863281249,-0.0021305288720633907,0.0,0.0,358.0168138214215,358.8438896784413,38.61871706676444
2026-09-29 19:10:47.684145212,0.25616259765625,-0.34234814453124995,10.18186474609375,0.0,0.0,-0.0010652644360316954,358.0166956418169,358.84342503141806,38.61831677393526
2026-09-29 19:10:47.716196537,0.24898046875,-0.34713623046875,10.1746826171875,0.0,0.0010652644360316954,0.0,358.01720209238,358.8438236609584,38.61880366038115
2026-09-29 19:10:47.716817379,0.2537685546875,-0.37586474609375,10.22016943359375,0.0,0.0,0.0010652644360316954,358.0171646711781,358.84424117291064,38.61959418038047
2026-09-29 19:10:47.721846819,0.22743408203124998,-0.35431835937499995,10.21059326171875,0.0,0.0010652644360316954,-0.0010652644360316954,358.01789644389083,358.8442551667342,38.61948342998605
2026-09-29 19:10:47.733347416,0.229828125,-0.36389453125,10.14356005859375,0.0,-0.0010652644360316954,0.0,358.01786211330165,358.84345390205044,38.61911308631024
2026-09-29 19:10:47.733347416,0.21785791015624997,-0.37586474609375,10.172288574218749,0.0,-0.0010652644360316954,0.0,358.01814725990266,358.8425210730472,38.61904728078841
2026-09-29 19:10:47.764735222,0.22504003906249997,-0.32798388671874995,10.2034111328125,-0.0010652644360316954,-0.0021305288720633907,-0.0010652644360316954,358.01760121091866,358.8418392567308,38.61896933904299
2026-09-29 19:10:47.764735222,0.2537685546875,-0.35192431640625,10.160318359375,0.0010652644360316954,0.0,0.0,358.0185980763214,358.84158485188175,38.618874246944536
2026-09-29 19:10:47.795945168,0.27052685546875,-0.34474218749999996,10.1651064453125,-0.0010652644360316954,-0.0021305288720633907,0.0,358.01842347713114,358.84051495481003,38.61911041277586
2026-09-29 19:10:47.795945168,0.24898046875,-0.38304687499999995,10.22016943359375,0.0,-0.0031957933080950856,0.0,358.0184604560968,358.83930777264794,38.61903734243539
2026-09-29 19:10:47.811541080,0.24658642578124998,-0.34713623046875,10.133983886718749,0.0,0.0,-0.0010652644360316954,358.0185406158078,358.8380716343004,38.61927457487451
2026-09-29 19:10:47.827209711,0.26095068359374995,-0.34234814453124995,10.162712402343749,-0.0010652644360316954,-0.0010652644360316954,-0.0010652644360316954,358.01749309819854,358.8379351129174,38.618868469010565
2026-09-29 19:10:47.827209711,0.26095068359374995,-0.34474218749999996,10.162712402343749,0.0,0.0,0.0,358.0173435804124,358.8378233207638,38.61876755860353
2026-09-29 19:10:47.827209711,0.2537685546875,-0.39980517578124997,10.196229003906248,0.0,0.0,0.0,358.0172310245,358.83810129504917,38.61833983109794
2026-09-29 19:10:47.827209711,0.25137451171874997,-0.34713623046875,10.17707666015625,0.0,0.0,0.0,358.01708460726934,358.83780729283984,38.618244939764395
2026-09-29 19:10:47.827209711,0.22504003906249997,-0.3112255859375,10.2034111328125,-0.0021305288720633907,0.0,-0.0010652644360316954,358.01649491657724,358.8373767818646,38.617530854095676
2026-09-29 19:10:47.842795372,0.23940429687499998,-0.35910644531249997,10.196229003906248,0.0,0.0,0.0,358.0167070201951,358.8371880529946,38.61773807339708
2026-09-29 19:10:47.858459473,0.23222216796874998,-0.33756005859375,10.160318359375,0.0,-0.0021305288720633907,0.0,358.01688737126386,358.83621585899226,38.61736342447999
2026-09-29 19:10:47.858459473,0.22025195312499998,-0.36389453125,10.2034111328125,0.0,-0.0010652644360316954,0.0,358.0165927850131,358.83597535684413,38.61757476791029
2026-09-29 19:10:47.874089479,0.25616259765625,-0.32558984375,10.18665283203125,0.0,0.0,0.0,358.0167816986779,358.8355142173333,38.618093686137556
2026-09-29 19:10:47.889708757,0.25137451171874997,-0.32798388671874995,10.205805175781249,-0.0010652644360316954,0.0,0.0,358.01627590860636,358.8355487075138,38.61828200571826
2026-09-29 19:10:47.889708757,0.2824970703125,-0.34713623046875,10.14356005859375,0.0,0.0,0.0,358.01695192774366,358.83510648864694,38.61849222210326
2026-09-29 19:10:47.905253410,0.2537685546875,-0.36628857421875,10.18665283203125,0.0,0.0,0.0,358.0178093965466,358.83476790151764,38.61869437580886
2026-09-29 19:10:47.936605692,0.26095068359374995,-0.37347070312499997,10.15313623046875,0.0,-0.0021305288720633907,0.0,358.01721034286686,358.83382505678685,38.61922738836094
2026-09-29 19:10:47.936605692,0.24898046875,-0.32319580078125,10.217775390624999,0.0,0.0,0.0,358.01802091775164,358.8336511901847,38.61943048926896
2026-09-29 19:10:47.936605692,0.22743408203124998,-0.36868261718749995,10.184258789062499,0.0,0.0,0.0,358.01843141158264,358.8334254294757,38.61932437534063
2026-09-29 19:10:47.983492374,0.23940429687499998,-0.3782587890625,10.1651064453125,0.0,-0.0010652644360316954,0.0,358.0183490725854,358.83342390497006,38.61922202664728
2026-09-29 19:10:47.983492374,0.2729208984375,-0.33995410156249994,10.18665283203125,0.0,0.0,0.0,358.0182090120833,358.83305557432334,38.619436454455325
2026-09-29 19:10:47.983492374,0.24898046875,-0.33756005859375,10.16989453125,0.0,0.0,0.0,358.01869823217737,358.8327102633129,38.619040565494494
2026-09-29 19:10:47.983492374,0.22025195312499998,-0.335166015625,10.25368603515625,0.0,-0.0010652644360316954,-0.0010652644360316954,358.01890649244075,358.83216642717434,38.61864418579521
2026-09-29 19:10:47.983492374,0.22025195312499998,-0.335166015625,10.179470703124998,0.0,-0.0010652644360316954,0.0,358.0185016611273,358.8318687546029,38.618552707384374
2026-09-29 19:10:47.999070406,0.1963115234375,-0.33995410156249994,10.14834814453125,0.0,-0.0010652644360316954,0.0,358.01936591821993,358.83106423480825,38.618176425833745
2026-09-29 19:10:48.014628887,0.22743408203124998,-0.3208017578125,10.198623046875,0.0,-0.0010652644360316954,0.0,358.0197071035476,358.8306448531242,38.619007535656
2026-09-29 19:10:48.014628887,0.25616259765625,-0.32558984375,10.184258789062499,0.0,0.0,-0.0010652644360316954,358.0200876006282,358.8312257606052,38.61827114919089
2026-09-29 19:10:48.034693480,0.2729208984375,-0.32319580078125,10.1363779296875,-0.0010652644360316954,-0.0010652644360316954,0.0,358.0200893518314,358.8305179387373,38.61787286199596
2026-09-29 19:10:48.043709517,0.25616259765625,-0.33037792968749996,10.167500488281249,0.0,-0.0010652644360316954,0.0,358.02026008592065,358.8298498415646,38.618385832226394
2026-09-29 19:10:48.055385113,0.24419238281249997,-0.37107666015624996,10.201017089843749,0.0,0.0010652644360316954,0.0,358.0203194651414,358.8301924145213,38.61826573953693
2026-09-29 19:10:48.055385113,0.27770898437499997,-0.33277197265624997,10.162712402343749,0.0,-0.0010652644360316954,0.0,358.02026905968887,358.82981876161926,38.61817957293654
2026-09-29 19:10:48.067875147,0.23940429687499998,-0.35671240234374996,10.239321777343749,0.0,0.0,0.0,358.0201906742619,358.8295306968338,38.61807715130314
2026-09-29 19:10:48.087233305,0.24898046875,-0.37107666015624996,10.21538134765625,-0.0010652644360316954,-0.0010652644360316954,0.0,358.0195271321425,358.8295406168384,38.61796368200595
2026-09-29 19:10:48.087233305,0.25616259765625,-0.30883154296875,10.196229003906248,0.0,0.0,0.0,358.01938863927506,358.8292486272022,38.617557622847194
2026-09-29 19:10:48.101292610,0.22264599609375,-0.35910644531249997,10.198623046875,0.0,0.0,0.0,358.01991329618323,358.8297538675754,38.618342795127035
2026-09-29 19:10:48.101292610,0.22504003906249997,-0.36628857421875,10.234533691406249,0.0010652644360316954,0.0,0.0,358.0206692901584,358.829968187741,38.61853653023227
2026-09-29 19:10:48.137027979,0.24658642578124998,-0.33756005859375,10.17707666015625,-0.0021305288720633907,-0.0010652644360316954,0.0,358.0201326676966,358.8295659172214,38.61905770951709
2026-09-29 19:10:48.137027979,0.22025195312499998,-0.35910644531249997,10.129195800781249,0.0,0.0,0.0010652644360316954,358.0200260046375,358.8296479771556,38.61986018626153
2026-09-29 19:10:48.166366577,0.23701025390624997,-0.33995410156249994,10.21538134765625,0.0,0.0,0.0,358.0207376613863,358.82986597311503,38.62037020313382
2026-09-29 19:10:48.167861462,0.25137451171874997,-0.35671240234374996,10.167500488281249,0.0,-0.0021305288720633907,0.0,358.0209898384304,358.8292139051553,38.62028841727686
2026-09-29 19:10:48.167861462,0.258556640625,-0.3208017578125,10.133983886718749,0.0,-0.0021305288720633907,-0.0010652644360316954,358.0207718364611,358.8280829767918,38.62022064847198
2026-09-29 19:10:48.183648109,0.2537685546875,-0.34474218749999996,10.19144091796875,0.0,-0.0010652644360316954,-0.0010652644360316954,358.020732829645,358.82728729027195,38.620128080370556
2026-09-29 19:10:48.184075117,0.25616259765625,-0.34234814453124995,10.212987304687498,0.0,-0.0010652644360316954,0.0,358.020800827315,358.8265874372955,38.62065999271653
2026-09-29 19:10:48.184075117,0.23940429687499998,-0.32558984375,10.246503906249998,0.0,-0.0010652644360316954,0.0,358.02132780037084,358.8257346017278,38.620883756045174
2026-09-29 19:10:48.200367689,0.23222216796874998,-0.35910644531249997,10.160318359375,0.0,0.0,0.0,358.02137820272713,358.82577168498574,38.62107318336189
2026-09-29 19:10:48.200367689,0.26095068359374995,-0.34234814453124995,10.155530273437499,0.0,-0.0010652644360316954,-0.0010652644360316954,358.02142490268704,358.8254810816779,38.62068014216984
2026-09-29 19:10:48.216987610,0.258556640625,-0.3495302734375,10.172288574218749,-0.0010652644360316954,0.0,-0.0010652644360316954,358.0214534046631,358.8250568215214,38.620270750498776
2026-09-29 19:10:48.232618332,0.23940429687499998,-0.36150048828125,10.2321396484375,0.0,0.0,0.0,358.0218777838532,358.82443392118853,38.620181026488865
2026-09-29 19:10:48.233581781,0.21785791015624997,-0.335166015625,10.17707666015625,-0.0010652644360316954,0.0,0.0,358.0216092970783,358.82457374612517,38.62007200313055
2026-09-29 19:10:48.250297308,0.258556640625,-0.34474218749999996,10.1651064453125,0.0,0.0,0.0010652644360316954,358.0218377507659,358.8247355603227,38.620873890558734
2026-09-29 19:10:48.265927315,0.29446728515625,-0.32319580078125,10.184258789062499,-0.0010652644360316954,0.0,0.0,358.0213718320351,358.82489506029896,38.621067594992866
2026-09-29 19:10:48.267061233,0.26334472656249996,-0.34474218749999996,10.18186474609375,0.0,-0.0010652644360316954,0.0,358.02124376036153,358.82413094190906,38.62127539278049
2026-09-29 19:10:48.283494234,0.25616259765625,-0.38065283203124994,10.196229003906248,0.0,0.0,0.0,358.02131535847906,358.8239563136826,38.621481114365324
2026-09-29 19:10:48.283794165,0.26334472656249996,-0.32319580078125,10.172288574218749,-0.0010652644360316954,-0.0021305288720633907,0.0,358.0202298757925,358.82277853861484,38.62111367445221
2026-09-29 19:10:48.300198317,0.24658642578124998,-0.34234814453124995,10.22016943359375,0.0,-0.0010652644360316954,0.0,358.020028262799,358.8222244620462,38.62132305152848
2026-09-29 19:10:48.300198317,0.21306982421874998,-0.35192431640625,10.145954101562499,0.0,0.0,0.0010652644360316954,358.0206162619935,358.8220802859883,38.62213441099169
2026-09-29 19:10:48.317456484,0.26573876953125,-0.36868261718749995,10.21059326171875,0.0,-0.0010652644360316954,0.0,358.0210017614282,358.82172754727645,38.622045546627525
2026-09-29 19:10:48.333499908,0.23222216796874998,-0.32558984375,10.205805175781249,0.0,0.0,0.0,358.0205297860358,358.8212995592589,38.62194502821648
2026-09-29 19:10:48.333499908,0.23701025390624997,-0.30883154296875,10.141166015624998,0.0,0.0,0.0,358.02109164919847,358.8206856106209,38.621863039160516
2026-09-29 19:10:48.350323677,0.258556640625,-0.35910644531249997,10.172288574218749,0.0,-0.0010652644360316954,0.0,358.0218983329892,358.8205859279604,38.62236497628946
2026-09-29 19:10:48.350323677,0.23940429687499998,-0.3208017578125,10.18665283203125,0.0,-0.0010652644360316954,0.0,358.0222169785509,358.81991208892106,38.62259301987105
2026-09-29 19:10:48.366914034,0.20349365234374997,-0.34474218749999996,10.217775390624999,0.0,0.0,0.0,358.0230114754216,358.81973762254074,38.622790185820044
2026-09-29 19:10:48.383554697,0.258556640625,-0.32558984375,10.189046874999999,0.0,0.0,0.0,358.02308947969834,358.8202794086739,38.62297475259344
2026-09-29 19:10:48.383554697,0.2729208984375,-0.28728515624999995,10.18665283203125,0.0,0.0,-0.0010652644360316954,358.0232190855441,358.8206331463417,38.622847042290694
2026-09-29 19:10:48.400292635,0.21785791015624997,-0.34234814453124995,10.196229003906248,0.0,-0.0010652644360316954,0.0,358.0240586112949,358.81994844103826,38.62244397567326
2026-09-29 19:10:48.400292635,0.23461621093749999,-0.35671240234374996,10.124407714843748,0.0,0.0,0.0,358.0242225757944,358.81949993013444,38.62296332030449
2026-09-29 19:10:48.416876793,0.24658642578124998,-0.3495302734375,10.122013671875,-0.0010652644360316954,0.0,0.0,358.02380238265187,358.8198446595933,38.62285113125143
2026-09-29 19:10:48.416876793,0.258556640625,-0.335166015625,10.21059326171875,0.0,0.0,0.0,358.0233805381286,358.8193483159897,38.62274961552464
2026-09-29 19:10:48.439085245,0.23461621093749999,-0.35671240234374996,10.162712402343749,0.0,-0.0010652644360316954,0.0,358.02349079528693,358.8186349947656,38.62266013154614
2026-09-29 19:10:48.450197220,0.23222216796874998,-0.34474218749999996,10.184258789062499,0.0,0.0,0.0,358.0240516608815,358.8179427524971,38.622883216976945
2026-09-29 19:10:48.455471277,0.201099609375,-0.34713623046875,10.212987304687498,0.0,-0.0010652644360316954,-0.0010652644360316954,358.0243716450355,358.81793377300176,38.62277911692604
2026-09-29 19:10:48.466905594,0.24658642578124998,-0.335166015625,10.1746826171875,0.0,-0.0010652644360316954,0.0,358.0248860833741,358.81766380090664,38.622382713511804
2026-09-29 19:10:48.500363111,0.23940429687499998,-0.30404345703124996,10.20819921875,0.0,0.0,0.0,358.0254458778242,358.81786945130256,38.6231840729749
2026-09-29 19:10:48.500363111,0.2681328125,-0.33277197265624997,10.21538134765625,-0.0010652644360316954,-0.0010652644360316954,0.0,358.02556056859373,358.81758708930136,38.62338259207718
2026-09-29 19:10:48.517226934,0.26095068359374995,-0.335166015625,10.18665283203125,0.0,0.0,0.0,358.025688696927,358.8170673260149,38.62298158813924
2026-09-29 19:10:48.517226934,0.2681328125,-0.3782587890625,10.198623046875,0.0,-0.0010652644360316954,-0.0010652644360316954,358.02602377213225,358.8164971993717,38.62227769538105
2026-09-29 19:10:48.550380707,0.23222216796874998,-0.35671240234374996,10.212987304687498,0.0,0.0,0.0,358.0259774929462,358.8162707509695,38.62279090619982
2026-09-29 19:10:48.550380707,0.28010302734375,-0.32319580078125,10.18186474609375,-0.0021305288720633907,-0.0010652644360316954,0.0,358.0254771253055,358.815870783745,38.62331140482541
2026-09-29 19:10:48.550380707,0.2729208984375,-0.35431835937499995,10.167500488281249,0.0,0.0,0.0,358.02552909499184,358.81548794004703,38.623206343403545
2026-09-29 19:10:48.550380707,0.18912939453125,-0.3495302734375,10.196229003906248,0.0,0.0,0.0,358.025662583389,358.81507991668093,38.6231164179274
2026-09-29 19:10:48.567261457,0.25137451171874997,-0.33756005859375,10.145954101562499,0.0,-0.0021305288720633907,0.0,358.025434390888,358.8142538947535,38.62304870407257
2026-09-29 19:10:48.567261457,0.25616259765625,-0.37347070312499997,10.2321396484375,0.0,-0.0010652644360316954,0.0,358.02616744878316,358.8132797364401,38.62357940377346
2026-09-29 19:10:48.585019588,0.27770898437499997,-0.335166015625,10.167500488281249,0.0,-0.0010652644360316954,0.0,358.02600271265055,358.81213397842987,38.62351033031148
2026-09-29 19:10:48.616848230,0.26334472656249996,-0.35671240234374996,10.1746826171875,0.0,0.0,0.0,358.0258964031642,358.81211784318276,38.62370298601151
2026-09-29 19:10:48.628123760,0.27052685546875,-0.35192431640625,10.212987304687498,0.0,-0.0010652644360316954,0.0,358.0261172476025,358.81228414790905,38.62389516961098
2026-09-29 19:10:48.629286289,0.26573876953125,-0.38065283203124994,10.100467285156249,0.0,-0.0010652644360316954,0.0,358.02552067539204,358.8114413034908,38.62412317882815
2026-09-29 19:10:48.632431269,0.23701025390624997,-0.34234814453124995,10.201017089843749,0.0,-0.0010652644360316954,-0.0010652644360316954,358.0256777075293,358.81065262237604,38.62343982199113
2026-09-29 19:10:48.633386612,0.229828125,-0.33995410156249994,10.246503906249998,0.0,0.0,0.0,358.02623826723743,358.81007012022656,38.62335782933942
2026-09-29 19:10:48.649900198,0.20828173828125,-0.36389453125,10.155530273437499,0.0,-0.0010652644360316954,0.0,358.02619557566214,358.80971988317435,38.62357010072923
2026-09-29 19:10:48.650977612,0.23222216796874998,-0.34713623046875,10.17707666015625,0.0,0.0,0.0,358.02604142779984,358.80994763856035,38.624079198217615
2026-09-29 19:10:48.666774273,0.26095068359374995,-0.34234814453124995,10.179470703124998,0.0,0.0,-0.0010652644360316954,358.02624555339605,358.81022911497723,38.62396693772752
2026-09-29 19:10:48.668385267,0.22743408203124998,-0.36150048828125,10.160318359375,0.0,-0.0010652644360316954,0.0,358.0267706539466,358.8094192816017,38.623580811995325
2026-09-29 19:10:48.683396101,0.24419238281249997,-0.31840771484374997,10.17707666015625,0.0,-0.0010652644360316954,0.0,358.02643866489154,358.809269165157,38.62410414855477
2026-09-29 19:10:48.683396101,0.18434130859374998,-0.3112255859375,10.22495751953125,-0.0010652644360316954,-0.0010652644360316954,0.0,358.0263763880012,358.80887763185274,38.62431045860631
2026-09-29 19:10:48.700181007,0.22743408203124998,-0.33995410156249994,10.21059326171875,0.0,0.0,-0.0010652644360316954,358.0264054945384,358.80845218801653,38.624226900804175
2026-09-29 19:10:48.717027426,0.24419238281249997,-0.33756005859375,10.145954101562499,0.0,0.0,0.0010652644360316954,358.02692741286245,358.80802891151575,38.624745036723525
2026-09-29 19:10:48.717027426,0.23701025390624997,-0.32558984375,10.155530273437499,0.0,0.0,-0.0010652644360316954,358.02719261823233,358.8075835371219,38.6246524852884
2026-09-29 19:10:48.733561516,0.29207324218749997,-0.33756005859375,10.172288574218749,0.0,0.0,0.0,358.02778879929815,358.80739723175475,38.62485367099248
2026-09-29 19:10:48.733561516,0.23701025390624997,-0.3064375,10.15313623046875,0.0,-0.0010652644360316954,0.0,358.0280074139495,358.80630248616035,38.625077398145116
2026-09-29 19:10:48.750152111,0.23701025390624997,-0.3495302734375,10.2034111328125,0.0,-0.0010652644360316954,0.0,358.02837743705703,358.8050315863851,38.625013988354596
2026-09-29 19:10:48.765765190,0.24658642578124998,-0.36150048828125,10.18665283203125,-0.0010652644360316954,0.0,-0.0010652644360316954,358.0282561739199,358.805022343667,38.624302758793064
2026-09-29 19:10:48.772439957,0.24419238281249997,-0.34474218749999996,10.1746826171875,0.0,0.0,-0.0010652644360316954,358.0283683240905,358.80535608772874,38.6241923936028
2026-09-29 19:10:48.783385515,0.23701025390624997,-0.33995410156249994,10.162712402343749,0.0,0.0,0.0,358.02892592002524,358.8050097001924,38.623795035519215
2026-09-29 19:10:48.783385515,0.2537685546875,-0.35671240234374996,10.18186474609375,0.0,-0.0010652644360316954,0.0,358.0284496578,358.8050164072064,38.623999527215865
2026-09-29 19:10:48.800308704,0.24419238281249997,-0.32798388671874995,10.141166015624998,0.0,0.0,0.0,358.02915038039504,358.80435236308443,38.62391045547344
2026-09-29 19:10:48.800308704,0.2824970703125,-0.35910644531249997,10.21059326171875,0.0,-0.0010652644360316954,0.0,358.0286037475794,358.8042247530114,38.62381150287421
2026-09-29 19:10:48.818016052,0.24898046875,-0.35431835937499995,10.160318359375,0.0,0.0,-0.0010652644360316954,358.02906210987476,358.80355520763476,38.623721233772905
2026-09-29 19:10:48.832633018,0.24898046875,-0.35192431640625,10.201017089843749,0.0,-0.0021305288720633907,0.0,358.0290106270592,358.8028897401202,38.623950611045416
2026-09-29 19:10:48.833815336,0.258556640625,-0.3495302734375,10.16989453125,0.0,0.0,0.0,358.0287602962852,358.80229414493954,38.62386222263265
2026-09-29 19:10:48.889602661,0.21785791015624997,-0.36868261718749995,10.179470703124998,-0.0010652644360316954,0.0,0.0,358.0282384707084,358.8026808211143,38.62374162515653
2026-09-29 19:10:48.890725851,0.22025195312499998,-0.35192431640625,10.18186474609375,0.0,-0.0010652644360316954,0.0,358.0279463020669,358.8029028713599,38.624253561917016
2026-09-29 19:10:48.916115284,0.24658642578124998,-0.3112255859375,10.20819921875,0.0,-0.0010652644360316954,0.0,358.02784743266557,358.80298125318575,38.62415154336631
2026-09-29 19:10:48.932240963,0.22743408203124998,-0.34234814453124995,10.129195800781249,0.0,-0.0031957933080950856,0.0,358.02809557569043,358.8019363901194,38.62437883932749
2026-09-29 19:10:48.947885513,0.2681328125,-0.35192431640625,10.244109863281249,0.0,-0.0010652644360316954,-0.0010652644360316954,358.0276588587233,358.8011524755481,38.624298698840754
2026-09-29 19:10:48.947885513,0.22264599609375,-0.34713623046875,10.1363779296875,0.0,0.0,0.0,358.02810123538165,358.8017656232159,38.624177165755626
2026-09-29 19:10:48.947885513,0.22264599609375,-0.33756005859375,10.201017089843749,0.0,-0.0010652644360316954,0.0,358.02786043687786,358.8015828905173,38.6237837530476
2026-09-29 19:10:48.963827610,0.22504003906249997,-0.3495302734375,10.150742187499999,0.0,-0.0010652644360316954,0.0,358.02778318806475,358.8008480352584,38.62370231612778
2026-09-29 19:10:48.963827610,0.23701025390624997,-0.3208017578125,10.184258789062499,0.0,0.0,0.0,358.02793652956814,358.8011445238853,38.624211394033814
2026-09-29 19:10:48.963827610,0.22025195312499998,-0.33756005859375,10.172288574218749,-0.0010652644360316954,0.0,0.0,358.0279604449906,358.80141443442335,38.624096326348344
2026-09-29 19:10:48.963827610,0.22264599609375,-0.35192431640625,10.18186474609375,0.0,-0.0010652644360316954,0.0,358.02849542948314,358.8008260801308,38.62462478092856
2026-09-29 19:10:48.974654675,0.24419238281249997,-0.37347070312499997,10.227351562499999,0.0,-0.0010652644360316954,0.0,358.02837663793065,358.80069554003563,38.62514352035748
2026-09-29 19:10:48.974654675,0.24898046875,-0.33277197265624997,10.2034111328125,0.0,-0.0010652644360316954,0.0,358.0281459630779,358.8009658531635,38.625338824919666
2026-09-29 19:10:48.979693413,0.24179833984375,-0.30164941406249995,10.184258789062499,0.0,-0.0010652644360316954,0.0,358.02833710315133,358.7998300832314,38.62557357036049
2026-09-29 19:10:48.979693413,0.23940429687499998,-0.33756005859375,10.189046874999999,0.0,0.0,0.0,358.0292460334434,358.79959778569986,38.625473858957086
2026-09-29 19:10:48.995337963,0.23701025390624997,-0.33995410156249994,10.201017089843749,-0.0010652644360316954,-0.0021305288720633907,-0.0010652644360316954,358.0291640425459,358.7988449183067,38.624782784699875
2026-09-29 19:10:49.011200905,0.18434130859374998,-0.33277197265624997,10.17707666015625,0.0,0.0010652644360316954,0.0,358.0292774943823,358.7989876617542,38.624977219723135
2026-09-29 19:10:49.014153242,0.229828125,-0.32558984375,10.07652685546875,0.0,-0.0021305288720633907,0.0,358.0292197098172,358.7985920551791,38.625200328841636
2026-09-29 19:10:49.034362316,0.23701025390624997,-0.33277197265624997,10.24889794921875,-0.0010652644360316954,0.0,0.0,358.0291940592434,358.79833225503563,38.625717137628286
2026-09-29 19:10:49.048341751,0.23461621093749999,-0.34234814453124995,10.141166015624998,0.0,0.0,0.0,358.0291824109191,358.797864626152,38.625623834205406
2026-09-29 19:10:49.054214954,0.24179833984375,-0.35910644531249997,10.129195800781249,0.0,0.0,0.0,358.0295569666735,358.7980327676772,38.625819206370885
2026-09-29 19:10:49.066542863,0.25137451171874997,-0.33037792968749996,10.19144091796875,-0.0010652644360316954,-0.0010652644360316954,-0.0010652644360316954,358.0291482935427,358.79754978532003,38.62542299482591
2026-09-29 19:10:49.066542863,0.26334472656249996,-0.335166015625,10.1746826171875,-0.0010652644360316954,-0.0010652644360316954,0.0,358.0285140182029,358.7971556955552,38.625329949070604
2026-09-29 19:10:49.081432581,0.22743408203124998,-0.35192431640625,10.196229003906248,0.0,-0.0021305288720633907,0.0,358.0287067023965,358.7962467245436,38.624944357970996
2026-09-29 19:10:49.081432581,0.23940429687499998,-0.32798388671874995,10.145954101562499,-0.0010652644360316954,-0.0010652644360316954,0.0,358.0283582507628,358.79616982708313,38.6251462615142
2026-09-29 19:10:49.097069740,0.24898046875,-0.3782587890625,10.157924316406248,0.0010652644360316954,0.0,-0.0010652644360316954,358.0287732114539,358.7962989569391,38.62472454923238
2026-09-29 19:10:49.112739325,0.23461621093749999,-0.32558984375,10.141166015624998,0.0,0.0,0.0,358.02916733873707,358.7959501982757,38.62524547393984
2026-09-29 19:10:49.112739325,0.28010302734375,-0.3208017578125,10.172288574218749,0.0,0.0,-0.0010652644360316954,358.02944943057827,358.7965379102697,38.6245111393718
2026-09-29 19:10:49.128831148,0.20349365234374997,-0.35431835937499995,10.1938349609375,0.0,0.0,0.0,358.0292634556834,358.79666070571704,38.625010442483536
2026-09-29 19:10:49.128831148,0.22743408203124998,-0.31601367187499996,10.22495751953125,0.0,-0.0010652644360316954,0.0,358.0289963117835,358.7965973835264,38.62522743685901
2026-09-29 19:10:49.144467115,0.22504003906249997,-0.33756005859375,10.184258789062499,0.0,-0.0010652644360316954,0.0,358.0294155108959,358.796300727704,38.62513148975764
2026-09-29 19:10:49.161490440,0.20828173828125,-0.35671240234374996,10.201017089843749,-0.0010652644360316954,0.0,0.0,358.02872152715696,358.79639527186214,38.62502922334781
2026-09-29 19:10:49.161490440,0.22504003906249997,-0.335166015625,10.2034111328125,0.0,-0.0021305288720633907,0.0,358.0281658904992,358.7959553510472,38.62464654983955
2026-09-29 19:10:49.176001072,0.28728515624999995,-0.335166015625,10.2034111328125,0.0,0.0,0.0,358.0283455292144,358.79573792689916,38.62455562205274
2026-09-29 19:10:49.191633940,0.22504003906249997,-0.33277197265624997,10.162712402343749,0.0,0.0010652644360316954,-0.0010652644360316954,358.0288958343751,358.7957927265639,38.62383247427856
2026-09-29 19:10:49.207290173,0.23940429687499998,-0.31840771484374997,10.157924316406248,0.0,-0.0010652644360316954,0.0,358.0292482144996,358.7951597608138,38.62405339560978
2026-09-29 19:10:49.207290173,0.2681328125,-0.35431835937499995,10.18186474609375,0.0,-0.0010652644360316954,0.0,358.029084809121,358.79490628363044,38.62457320355409
2026-09-29 19:10:49.238730907,0.27770898437499997,-0.35192431640625,10.234533691406249,0.0,-0.0010652644360316954,0.0,358.0289188558515,358.79459832116055,38.6241677354823
2026-09-29 19:10:49.247346640,0.258556640625,-0.30883154296875,10.160318359375,-0.0010652644360316954,-0.0010652644360316954,0.0,358.02852332273966,358.79394636000393,38.62438098350312
2026-09-29 19:10:49.270439625,0.25616259765625,-0.35910644531249997,10.1746826171875,0.0,0.0,-0.0010652644360316954,358.0292132098348,358.79321203331045,38.62399140855406
2026-09-29 19:10:49.286252737,0.23701025390624997,-0.35910644531249997,10.17707666015625,0.0,-0.0010652644360316954,0.0,358.02898377169794,358.7924988412418,38.624523119859596
2026-09-29 19:10:49.300403595,0.29925537109375,-0.35910644531249997,10.229745605468748,0.0,-0.0010652644360316954,0.0,358.0288211474792,358.7921383709934,38.624737944088224
2026-09-29 19:10:49.301912546,0.22264599609375,-0.35671240234374996,10.155530273437499,0.0,0.0,0.0,358.02879791404996,358.7921404659067,38.624935312105066
2026-09-29 19:10:49.305932760,0.28010302734375,-0.32558984375,10.184258789062499,0.0,0.0,-0.0010652644360316954,358.02864404420757,358.7915630721638,38.62455056871397
2026-09-29 19:10:49.305932760,0.25616259765625,-0.33277197265624997,10.160318359375,-0.0010652644360316954,0.0,0.0,358.02872197216533,358.79139720524154,38.62413993596416
2026-09-29 19:10:49.310112953,0.24658642578124998,-0.3495302734375,10.21538134765625,0.0,-0.0010652644360316954,0.0,358.02823964722444,358.7911109783656,38.6240396966588
2026-09-29 19:10:49.314891577,0.23222216796874998,-0.34234814453124995,10.16989453125,0.0,0.0,0.0,358.02786840593143,358.7909716802731,38.62424848239615
2026-09-29 19:10:49.317970991,0.28489111328125,-0.3064375,10.18186474609375,0.0,-0.0021305288720633907,0.0,358.02800302289734,358.79024408368076,38.624168956203796
2026-09-29 19:10:49.329431057,0.24419238281249997,-0.32798388671874995,10.212987304687498,0.0,0.0,0.0,358.02812292189594,358.79020766034415,38.62496666007809
2026-09-29 19:10:49.338413715,0.19870556640624998,-0.335166015625,10.222563476562499,0.0,0.0,0.0,358.02866549191464,358.78968602308555,38.62456966772253
2026-09-29 19:10:49.349475145,0.20828173828125,-0.32558984375,10.1651064453125,0.0,-0.0021305288720633907,-0.0010652644360316954,358.0289097323971,358.78961931390245,38.624172389709564
2026-09-29 19:10:49.365489721,0.23461621093749999,-0.335166015625,10.150742187499999,-0.0010652644360316954,-0.0010652644360316954,0.0,358.0289819654587,358.7899495235691,38.624062740656925
2026-09-29 19:10:49.372020721,0.22264599609375,-0.3208017578125,10.179470703124998,0.0,-0.0010652644360316954,-0.0010652644360316954,358.02885957958443,358.7890889429133,38.62367741094956
2026-09-29 19:10:49.384832144,0.23461621093749999,-0.33756005859375,10.2034111328125,0.0,-0.0010652644360316954,0.0,358.0287011203917,358.7888820697861,38.62358063133956
2026-09-29 19:10:49.389413834,0.2729208984375,-0.37347070312499997,10.18665283203125,0.0,0.0,0.0,358.02896241267825,358.78933608247206,38.62377196551167
2026-09-29 19:10:49.397426367,0.26573876953125,-0.36389453125,10.184258789062499,-0.0010652644360316954,0.0,0.0,358.02843967061057,358.7898019746351,38.62395652734619
2026-09-29 19:10:49.407139301,0.24179833984375,-0.31601367187499996,10.222563476562499,-0.0010652644360316954,0.0,0.0,358.02752054011273,358.789559061197,38.6238589880043
2026-09-29 19:10:49.413946867,0.25616259765625,-0.36628857421875,10.15313623046875,0.0,0.0,0.0,358.0283918299609,358.7890254219142,38.62407126998337
2026-09-29 19:10:49.428961754,0.22264599609375,-0.37347070312499997,10.217775390624999,0.0,0.0010652644360316954,0.0,358.02827437647727,358.78919510259374,38.623965480640145
2026-09-29 19:10:49.435956478,0.22743408203124998,-0.33756005859375,10.21059326171875,0.0,0.0,0.0,358.02861543884956,358.7894089508026,38.62417207299118
2026-09-29 19:10:49.444972515,0.22504003906249997,-0.31361962890624995,10.198623046875,0.0,0.0,0.0,358.02912272775103,358.78950713149175,38.62407021463198
2026-09-29 19:10:49.460962534,0.22025195312499998,-0.35671240234374996,10.22016943359375,0.0,-0.0010652644360316954,-0.0010652644360316954,358.0295428011707,358.7885272034823,38.623690362394846
2026-09-29 19:10:49.460962534,0.23222216796874998,-0.37107666015624996,10.160318359375,0.0,-0.0010652644360316954,0.0,358.0294983681236,358.78815475108024,38.62360420095989
2026-09-29 19:10:49.476870537,0.22504003906249997,-0.33037792968749996,10.2321396484375,0.0,0.0,0.0,358.03022848633805,358.7878569387499,38.6241244514081
2026-09-29 19:10:49.476870537,0.24658642578124998,-0.31601367187499996,10.16989453125,0.0,-0.0010652644360316954,-0.0010652644360316954,358.0302361124532,358.78764521269886,38.62403081718013
2026-09-29 19:10:49.493627310,0.26095068359374995,-0.32558984375,10.15313623046875,0.0,0.0,0.0,358.0306633056779,358.78767559130944,38.624235605789615
2026-09-29 19:10:49.508456229,0.2154638671875,-0.3782587890625,10.244109863281249,0.0,0.0,0.0,358.03112543409827,358.7881326646947,38.62441867148418
2026-09-29 19:10:49.524175882,0.26095068359374995,-0.33037792968749996,10.18186474609375,0.0,0.0,0.0,358.03135459623644,358.7879183578149,38.62432662919883
2026-09-29 19:10:49.524175882,0.2154638671875,-0.33037792968749996,10.1938349609375,-0.0010652644360316954,-0.0021305288720633907,0.0,358.0306915065543,358.78730579046925,38.62424468711198
2026-09-29 19:10:49.524175882,0.20349365234374997,-0.335166015625,10.179470703124998,0.0,-0.0021305288720633907,0.0,358.0304188200402,358.787100120213,38.62446588626667
2026-09-29 19:10:49.540180922,0.21785791015624997,-0.335166015625,10.18186474609375,0.0010652644360316954,0.0,0.0,358.03081120934723,358.78752933476375,38.62405106713341
2026-09-29 19:10:49.555810928,0.24658642578124998,-0.36628857421875,10.145954101562499,0.0,-0.0010652644360316954,0.0,358.0313573105458,358.78704356527925,38.62427425204224
2026-09-29 19:10:49.571445942,0.21785791015624997,-0.32798388671874995,10.167500488281249,0.0,0.0,0.0,358.0315390085494,358.7865076933314,38.62449462859894
2026-09-29 19:10:49.602864265,0.26095068359374995,-0.33995410156249994,10.17707666015625,-0.0010652644360316954,-0.0010652644360316954,-0.0010652644360316954,358.0312814113252,358.78612009404367,38.62439999954487
2026-09-29 19:10:49.603519201,0.26573876953125,-0.34713623046875,10.138771972656249,-0.0010652644360316954,-0.0010652644360316954,0.0,358.03074373654573,358.7858764530337,38.62398956045555
2026-09-29 19:10:49.620186090,0.22504003906249997,-0.33277197265624997,10.167500488281249,-0.0010652644360316954,0.0,0.0,358.0303024842871,358.78526509252555,38.624508781451205
2026-09-29 19:10:49.652203321,0.22264599609375,-0.3495302734375,10.145954101562499,0.0021305288720633907,0.0,-0.0010652644360316954,358.0311862086262,358.78530232226706,38.6244054268731
2026-09-29 19:10:49.652203321,0.22264599609375,-0.33756005859375,10.160318359375,-0.0010652644360316954,-0.0021305288720633907,0.0,358.0311045162332,358.78484506429686,38.62462898839978
2026-09-29 19:10:49.652203321,0.258556640625,-0.3495302734375,10.222563476562499,0.0010652644360316954,0.0,0.0,358.03160752674427,358.78512430115103,38.625126686499804
2026-09-29 19:10:49.666215658,0.23940429687499998,-0.33756005859375,10.157924316406248,0.0,-0.0010652644360316954,0.0010652644360316954,358.03179462019034,358.7845672824121,38.625950438466454
2026-09-29 19:10:49.666215658,0.24179833984375,-0.34234814453124995,10.129195800781249,0.0,0.0,0.0,358.03230887482,358.7846813737978,38.62615329220457
2026-09-29 19:10:49.666215658,0.22264599609375,-0.32558984375,10.157924316406248,0.0,-0.0010652644360316954,0.0,358.0325053230282,358.784285022942,38.62636696170199
2026-09-29 19:10:49.666215658,0.22743408203124998,-0.33037792968749996,10.160318359375,0.0,-0.0021305288720633907,0.0,358.0320303084868,358.78341528436596,38.626602961139646
2026-09-29 19:10:49.681861877,0.21306982421874998,-0.3495302734375,10.184258789062499,0.0,-0.0010652644360316954,0.0,358.03221954115577,358.7831578194174,38.626206939653855
2026-09-29 19:10:49.697477818,0.24658642578124998,-0.3495302734375,10.16989453125,0.0,0.0,0.0,358.0320483334544,358.78333083207684,38.62641146422351
2026-09-29 19:10:49.697477818,0.2681328125,-0.34234814453124995,10.172288574218749,0.0,0.0,0.0,358.03261723631823,358.78352705538555,38.626297692116026
2026-09-29 19:10:49.713120937,0.18912939453125,-0.36150048828125,10.20819921875,-0.0010652644360316954,-0.0010652644360316954,0.0,358.03225921344483,358.7833287335368,38.62649971368277
2026-09-29 19:10:49.713120937,0.22743408203124998,-0.3878349609375,10.205805175781249,0.0010652644360316954,0.0,0.0,358.0331736156642,358.7834344335222,38.62702247448902
2026-09-29 19:10:49.728739977,0.24419238281249997,-0.3208017578125,10.129195800781249,0.0,-0.0010652644360316954,-0.0010652644360316954,358.0327555795437,358.78345052574434,38.62692728905002
2026-09-29 19:10:49.744379282,0.2729208984375,-0.34234814453124995,10.198623046875,0.0,-0.0010652644360316954,0.0,358.03312443027454,358.7829110690076,38.62714777106615
2026-09-29 19:10:49.744379282,0.258556640625,-0.33037792968749996,10.229745605468748,0.0,0.0,0.0,358.0330493728386,358.7827768856553,38.62765524095322
2026-09-29 19:10:49.761181593,0.22743408203124998,-0.3495302734375,10.1746826171875,0.0,0.0,0.0,358.0335884871094,358.78304941042046,38.62784720489403
2026-09-29 19:10:49.761181593,0.21306982421874998,-0.35431835937499995,10.184258789062499,0.0,-0.0010652644360316954,0.0,358.0335376194422,358.7823823396196,38.62807665722923
2026-09-29 19:10:49.777749300,0.26573876953125,-0.35431835937499995,10.222563476562499,0.0,0.0,-0.0010652644360316954,358.0335731699207,358.78313685652574,38.62734753853104
2026-09-29 19:10:49.791719675,0.24419238281249997,-0.3208017578125,10.19144091796875,0.0,0.0,0.0,358.0335299280107,358.7828257220947,38.6272508405407
2026-09-29 19:10:49.807386637,0.258556640625,-0.335166015625,10.160318359375,-0.0010652644360316954,-0.0021305288720633907,0.0,358.03340890065556,358.78214345719647,38.62747520989689
2026-09-29 19:10:49.807386637,0.25616259765625,-0.33995410156249994,10.201017089843749,0.0,0.0,0.0,358.03336407493623,358.7820832569807,38.627677067976116
2026-09-29 19:10:49.807386637,0.23461621093749999,-0.35671240234374996,10.256080078124999,0.0,0.0,0.0,358.03288216672576,358.7820181829883,38.62788164373985
2026-09-29 19:10:49.838606358,0.26095068359374995,-0.3495302734375,10.14356005859375,-0.0010652644360316954,0.0,0.0,358.03251791339915,358.7826614051723,38.62806938774585
2026-09-29 19:10:49.838606358,0.22264599609375,-0.33756005859375,10.141166015624998,0.0,0.0,0.0,358.03246780938935,358.7822391920566,38.62859329304198
2026-09-29 19:10:49.854239941,0.23701025390624997,-0.33995410156249994,10.141166015624998,0.0,0.0,0.0,358.0326446038891,358.781951385995,38.62850237053812
2026-09-29 19:10:49.854239941,0.25137451171874997,-0.32558984375,10.15313623046875,0.0,0.0,0.0,358.0334942012119,358.78133743239687,38.62872568588659
2026-09-29 19:10:49.869857788,0.21785791015624997,-0.34234814453124995,10.184258789062499,0.0,0.0,0.0,358.03401536624364,358.78117151973504,38.62923338487497
2026-09-29 19:10:49.901111841,0.28489111328125,-0.3208017578125,10.1268017578125,0.0,-0.0021305288720633907,0.0,358.0345668303668,358.7798299408009,38.629172386472305
2026-09-29 19:10:49.901111841,0.21067578124999997,-0.38065283203124994,10.1651064453125,-0.0010652644360316954,0.0,0.0,358.0342966493221,358.77967016209453,38.62937248636718
2026-09-29 19:10:49.901111841,0.22504003906249997,-0.39501708984374995,10.17707666015625,0.0,0.0,0.0,358.0342719494488,358.78001038717684,38.62926491116963
2026-09-29 19:10:49.901111841,0.23461621093749999,-0.38065283203124994,10.205805175781249,0.0,0.0,-0.0010652644360316954,358.03454677899066,358.7804714227837,38.628547754760504
2026-09-29 19:10:49.916771173,0.24179833984375,-0.34474218749999996,10.141166015624998,0.0,0.0,0.0,358.0345743749128,358.7807581562625,38.62874413328502
2026-09-29 19:10:49.935380936,0.2824970703125,-0.34713623046875,10.2034111328125,-0.0010652644360316954,0.0,0.0,358.0342211876062,358.78058913377413,38.62894603922273
2026-09-29 19:10:49.937346220,0.229828125,-0.34234814453124995,10.160318359375,-0.0010652644360316954,-0.0021305288720633907,0.0,358.0336783045703,358.77980415081623,38.62947781905388
2026-09-29 19:10:49.949921370,0.23940429687499998,-0.34474218749999996,10.155530273437499,0.0,-0.0010652644360316954,0.0,358.0340073663281,358.7796849396785,38.62999365307707
2026-09-29 19:10:49.966512442,0.24419238281249997,-0.33277197265624997,10.205805175781249,0.0,-0.0021305288720633907,0.0,358.03445607745925,358.77970570435093,38.63019800569646
2026-09-29 19:10:49.966512442,0.29207324218749997,-0.33995410156249994,10.162712402343749,0.0,0.0,-0.0010652644360316954,358.034776363132,358.77928544674893,38.62979927820366
2026-09-29 19:10:49.996693611,0.2537685546875,-0.35192431640625,10.17707666015625,0.0,-0.0010652644360316954,0.0,358.0345616550046,358.77880243508656,38.62941176335424
2026-09-29 19:10:49.996693611,0.23940429687499998,-0.33277197265624997,10.21059326171875,0.0,0.0,0.0,358.0347177283937,358.77859923929725,38.62931081423902
2026-09-29 19:10:50.004252672,0.28489111328125,-0.35671240234374996,10.205805175781249,0.0,0.0,0.0,358.0350266799943,358.7790438103011,38.62888086046066
2026-09-29 19:10:50.011626959,0.26573876953125,-0.35910644531249997,10.14834814453125,0.0,0.0,0.0,358.0357086739009,358.7780979888431,38.62909723304789
2026-09-29 19:10:50.016053438,0.25616259765625,-0.32319580078125,10.17707666015625,0.0,0.0,0.0,358.03648171535355,358.77723176004565,38.62900661280011
2026-09-29 19:10:50.029619455,0.23222216796874998,-0.36150048828125,10.179470703124998,0.0,0.0,0.0,358.03693607409997,358.7769338415711,38.629204322736435
2026-09-29 19:10:50.043321133,0.24898046875,-0.37586474609375,10.14356005859375,0.0,-0.0010652644360316954,-0.0010652644360316954,358.0367263242454,358.7768183155707,38.62879989319719
2026-09-29 19:10:50.045561314,0.2154638671875,-0.33037792968749996,10.179470703124998,0.0010652644360316954,0.0,0.0,358.03697221300325,358.7769105154972,38.62870351485906
2026-09-29 19:10:50.058985233,0.25616259765625,-0.3495302734375,10.198623046875,0.0,0.0,0.0,358.03709752913477,358.77742747367955,38.62889126776674
2026-09-29 19:10:50.058985233,0.2154638671875,-0.36868261718749995,10.16989453125,0.0,-0.0010652644360316954,0.0,358.0368424372517,358.7770828589599,38.628498148867514
2026-09-29 19:10:50.074990749,0.22504003906249997,-0.3208017578125,10.157924316406248,0.0,0.0,0.0,358.03752335640837,358.7766833028455,38.62840949975792
2026-09-29 19:10:50.090880156,0.22504003906249997,-0.34234814453124995,10.16989453125,0.0,0.0,0.0,358.03721700251543,358.77721065879473,38.62858944016936
2026-09-29 19:10:50.090880156,0.22743408203124998,-0.33995410156249994,10.157924316406248,0.0,-0.0010652644360316954,0.0,358.03694531733345,358.7771183656279,38.62880648680002
2026-09-29 19:10:50.106646776,0.25616259765625,-0.35431835937499995,10.172288574218749,0.0,0.0,-0.0010652644360316954,358.03752925661513,358.77686910928463,38.628408485159675
2026-09-29 19:10:50.123465538,0.21067578124999997,-0.35671240234374996,10.179470703124998,0.0,-0.0010652644360316954,0.0,358.037461156313,358.7763166465644,38.62831628975179
2026-09-29 19:10:50.134709597,0.23940429687499998,-0.33756005859375,10.141166015624998,-0.0010652644360316954,-0.0021305288720633907,0.0,358.0369060298949,358.7757001836886,38.628248866289184
2026-09-29 19:10:50.139906406,0.24658642578124998,-0.35192431640625,10.189046874999999,0.0,-0.0010652644360316954,0.0,358.0369596152559,358.7753817254194,38.6284655236697
2026-09-29 19:10:50.154764891,0.24419238281249997,-0.335166015625,10.160318359375,0.0,-0.0010652644360316954,-0.0010652644360316954,358.03638715607156,358.7755722139363,38.62835688975662
2026-09-29 19:10:50.154764891,0.23461621093749999,-0.35910644531249997,10.15313623046875,0.0,-0.0021305288720633907,0.0,358.0360048696751,358.7742743811797,38.62859078068197
2026-09-29 19:10:50.170286894,0.25616259765625,-0.35431835937499995,10.19144091796875,0.0,0.0,-0.0010652644360316954,358.03615763414956,358.7741522270831,38.62819549584263
2026-09-29 19:10:50.185941219,0.23222216796874998,-0.32558984375,10.17707666015625,-0.0010652644360316954,0.0,0.0,358.0358553280023,358.77410956769234,38.62809128244131
2026-09-29 19:10:50.185941219,0.22025195312499998,-0.34474218749999996,10.133983886718749,0.0,0.0,-0.0010652644360316954,358.0363865218202,358.7739713357069,38.62767744132133
2026-09-29 19:10:50.201558113,0.26334472656249996,-0.34234814453124995,10.172288574218749,0.0,0.0010652644360316954,0.0,358.03666469888674,358.77444155106036,38.62787505852462
2026-09-29 19:10:50.201558113,0.24658642578124998,-0.33277197265624997,10.184258789062499,0.0,0.0,-0.0010652644360316954,358.0363156416033,358.77460573321736,38.62745658474911
2026-09-29 19:10:50.217181921,0.22743408203124998,-0.36628857421875,10.1746826171875,0.0,0.0,0.0,358.0368316888212,358.77428257474946,38.62766994545907
2026-09-29 19:10:50.232803345,0.24658642578124998,-0.35671240234374996,10.18186474609375,0.0,-0.0010652644360316954,0.0,358.0364332289203,358.7741246643042,38.62788982886426
2026-09-29 19:10:50.232803345,0.27531494140624996,-0.34713623046875,10.162712402343749,0.0,0.0,0.0,358.0361786493865,358.7734955325693,38.6278120848639
2026-09-29 19:10:50.248431206,0.258556640625,-0.32798388671874995,10.201017089843749,-0.0010652644360316954,-0.0010652644360316954,0.0,358.03532369032877,358.77318484005326,38.62802865175726
2026-09-29 19:10:50.264061689,0.2824970703125,-0.27531494140624996,10.179470703124998,0.0,-0.0010652644360316954,0.0,358.0353466446221,358.773186482004,38.628523517276705
2026-09-29 19:10:50.264061689,0.2154638671875,-0.35431835937499995,10.18186474609375,0.0,-0.0010652644360316954,0.0,358.0356081997202,358.77290258429974,38.628424182957026
2026-09-29 19:10:50.281471014,0.27052685546875,-0.35192431640625,10.189046874999999,0.0,-0.0010652644360316954,0.0,358.03553057061293,358.77289326646536,38.628637169321976
2026-09-29 19:10:50.295503139,0.2537685546875,-0.335166015625,10.222563476562499,0.0,0.0,0.0,358.0354954488621,358.77276821927785,38.6291503605685
2026-09-29 19:10:50.295503139,0.2537685546875,-0.37107666015624996,10.184258789062499,0.0,-0.0010652644360316954,0.0,358.03535494653727,358.7723593596628,38.62936474281006
2026-09-29 19:10:50.311157942,0.2154638671875,-0.30883154296875,10.16989453125,0.0,-0.0010652644360316954,0.0,358.0353981493268,358.7716434433485,38.629287131675696
2026-09-29 19:10:50.326784372,0.258556640625,-0.3495302734375,10.198623046875,0.0,0.0,0.0,358.0359574410323,358.77182917249223,38.6291775444219
2026-09-29 19:10:50.326784372,0.229828125,-0.35910644531249997,10.18665283203125,0.0,-0.0010652644360316954,0.0,358.03575960953845,358.7713658548523,38.62908804403451
2026-09-29 19:10:50.358212709,0.2154638671875,-0.36628857421875,10.141166015624998,0.0,-0.0010652644360316954,-0.0010652644360316954,358.03488322969133,358.7712585874752,38.629000209094734
2026-09-29 19:10:50.358212709,0.23222216796874998,-0.34713623046875,10.189046874999999,0.0,0.0,0.0,358.0347965140785,358.77173720988196,38.62950402201099
2026-09-29 19:10:50.389615536,0.25137451171874997,-0.34474218749999996,10.15313623046875,0.0,-0.0021305288720633907,0.0,358.03437307952146,358.7712005621889,38.629423374194914
2026-09-29 19:10:50.389615536,0.19152343749999998,-0.34713623046875,10.198623046875,0.0,-0.0010652644360316954,0.0,358.0345197470997,358.7709733921764,38.62901768259992
2026-09-29 19:10:50.389615536,0.25137451171874997,-0.33037792968749996,10.217775390624999,0.0,0.0,0.0,358.03463294892924,358.7716519049629,38.628907158331465
2026-09-29 19:10:50.389615536,0.22264599609375,-0.36389453125,10.222563476562499,-0.0010652644360316954,0.0,0.0,358.0346563535133,358.7717363905903,38.62879204264228
2026-09-29 19:10:50.389615536,0.26573876953125,-0.3208017578125,10.20819921875,0.0,0.0,0.0,358.0343742300838,358.7717931868131,38.62869399322289
2026-09-29 19:10:50.406028509,0.23461621093749999,-0.36628857421875,10.251291992187499,-0.0010652644360316954,-0.0010652644360316954,0.0,358.0337800258897,358.77137015249497,38.62890493312191
2026-09-29 19:10:50.423030615,0.24179833984375,-0.35910644531249997,10.162712402343749,0.0,0.0,0.0,358.03370890224954,358.77142576650454,38.62879844452886
2026-09-29 19:10:50.423030615,0.23461621093749999,-0.30404345703124996,10.15313623046875,0.0,-0.0010652644360316954,0.0,358.0330871504916,358.7710012808351,38.62901653524728
2026-09-29 19:10:50.441650391,0.20349365234374997,-0.335166015625,10.229745605468748,0.0,-0.0010652644360316954,0.0,358.03306144261063,358.77116433778207,38.62921793094578
2026-09-29 19:10:50.441650391,0.24179833984375,-0.3495302734375,10.17707666015625,0.0,0.0,0.0,358.0333319156086,358.77119233307343,38.62942999330711
2026-09-29 19:10:50.454768181,0.23701025390624997,-0.36868261718749995,10.157924316406248,0.0,0.0,0.0,358.03379960728586,358.77045155185624,38.62965482782049
2026-09-29 19:10:50.469275904,0.26573876953125,-0.3208017578125,10.1363779296875,-0.0010652644360316954,-0.0010652644360316954,0.0,358.03301639446516,358.76993380794227,38.62956485365075
2026-09-29 19:10:50.484934656,0.23701025390624997,-0.35192431640625,10.15313623046875,0.0,-0.0010652644360316954,0.0,358.0331237038829,358.7697622150402,38.62945841570301
2026-09-29 19:10:50.484934656,0.22504003906249997,-0.35910644531249997,10.129195800781249,0.0,-0.0010652644360316954,0.0,358.0327316591895,358.7694213104866,38.629366582970945
2026-09-29 19:10:50.500539392,0.24179833984375,-0.36868261718749995,10.22495751953125,0.0,0.0,0.0,358.0330715382417,358.7693725606627,38.629878246600654
2026-09-29 19:10:50.500539392,0.27531494140624996,-0.33277197265624997,10.15313623046875,0.0,0.0,0.0,358.03336412559094,358.76958059312767,38.62977048249972
2026-09-29 19:10:50.531791360,0.2537685546875,-0.34474218749999996,10.21538134765625,0.0,0.0,0.0,358.0339563683979,358.7694345190863,38.62997171917198
2026-09-29 19:10:50.531791360,0.25616259765625,-0.33756005859375,10.198623046875,0.0,0.0,0.0,358.0350985181555,358.769741787981,38.62985883377001
2026-09-29 19:10:50.531791360,0.23940429687499998,-0.34474218749999996,10.198623046875,0.0,0.0,0.0,358.0349266162956,358.76937401363233,38.62976885345821
2026-09-29 19:10:50.547416832,0.25616259765625,-0.35192431640625,10.172288574218749,0.0,-0.0010652644360316954,0.0,358.0348140456216,358.76863346318635,38.63029801266886
2026-09-29 19:10:50.547416832,0.23222216796874998,-0.35910644531249997,10.21059326171875,0.0,-0.0010652644360316954,0.0,358.03429881750964,358.76829594688024,38.63051380889401
2026-09-29 19:10:50.563042816,0.258556640625,-0.36868261718749995,10.196229003906248,0.0010652644360316954,0.0,0.0,358.0349793449813,358.7686216671305,38.630709238721884
2026-09-29 19:10:50.578661632,0.20828173828125,-0.36628857421875,10.212987304687498,0.0,0.0,0.0,358.035441047735,358.76841391897,38.630923675061666
2026-09-29 19:10:50.578661632,0.22025195312499998,-0.33277197265624997,10.256080078124999,0.0,0.0,0.0,358.0357265994655,358.7692057370515,38.63112095992156
2026-09-29 19:10:50.594289664,0.26334472656249996,-0.35671240234374996,10.1938349609375,0.0,0.0,0.0,358.03607997017224,358.7688913062113,38.63072135282767
2026-09-29 19:10:50.609931776,0.25616259765625,-0.35431835937499995,10.117225585937499,0.0,-0.0021305288720633907,0.0,358.03608256414907,358.76806383959877,38.63064462948515
2026-09-29 19:10:50.617494528,0.26095068359374995,-0.34474218749999996,10.2034111328125,0.0,-0.0021305288720633907,0.0,358.035691138044,358.7671319707972,38.630878664196125
2026-09-29 19:10:50.626017536,0.229828125,-0.35910644531249997,10.141166015624998,0.0,-0.0010652644360316954,0.0,358.0359429883829,358.76656325341486,38.63110155234545
2026-09-29 19:10:50.641669120,0.27052685546875,-0.35910644531249997,10.138771972656249,0.0,0.0,0.0,358.03587388952474,358.7662530982611,38.63100944321562
2026-09-29 19:10:50.641669120,0.29207324218749997,-0.34713623046875,10.133983886718749,0.0,0.0,0.0,358.0364657033621,358.76633303204244,38.631200306599744
2026-09-29 19:10:50.659197696,0.2154638671875,-0.33037792968749996,10.15313623046875,-0.0010652644360316954,0.0,0.0,358.03598986437504,358.7660799801965,38.631709773077546
2026-09-29 19:10:50.673226752,0.24898046875,-0.32319580078125,10.179470703124998,0.0,0.0,0.0,358.03589049031774,358.76660389847535,38.632512123739964
2026-09-29 19:10:50.673226752,0.23461621093749999,-0.33756005859375,10.239321777343749,0.0,-0.0021305288720633907,0.0,358.0362994004846,358.76610871512815,38.6324267212161
2026-09-29 19:10:50.704506112,0.258556640625,-0.35431835937499995,10.22016943359375,-0.0010652644360316954,-0.0010652644360316954,0.0,358.0358400116734,358.76621097723097,38.6332407455064
2026-09-29 19:10:50.704506112,0.26095068359374995,-0.35671240234374996,10.155530273437499,-0.0010652644360316954,-0.0021305288720633907,0.0,358.0351617576704,358.7657512450673,38.63314852922517
2026-09-29 19:10:50.735757312,0.25137451171874997,-0.34713623046875,10.196229003906248,0.0,0.0,0.0,358.0355106694364,358.76578334032905,38.633354983494144
2026-09-29 19:10:50.751385600,0.2681328125,-0.33037792968749996,10.1938349609375,0.0,0.0,0.0010652644360316954,358.0360308351826,358.765949358576,38.63385218336425
2026-09-29 19:10:50.751385600,0.22025195312499998,-0.34234814453124995,10.198623046875,0.0,0.0,0.0,358.03598815244,358.76564144972446,38.6337489405989
2026-09-29 19:10:50.767019776,0.201099609375,-0.33037792968749996,10.117225585937499,0.0,-0.0010652644360316954,0.0,358.03623299208436,358.7655500286803,38.63426659920993
2026-09-29 19:10:50.767019776,0.24179833984375,-0.35910644531249997,10.179470703124998,0.0,0.0,0.0,358.0365925064904,358.76545481266686,38.6344766574079
2026-09-29 19:10:50.767019776,0.26095068359374995,-0.32558984375,10.16989453125,0.0,-0.0010652644360316954,0.0,358.03646472215075,358.7654485988586,38.634385843868365
2026-09-29 19:10:50.767019776,0.23701025390624997,-0.32319580078125,10.1938349609375,0.0,0.0,0.0,358.037441833372,358.7655000765282,38.634585298047845
2026-09-29 19:10:50.784159488,0.23461621093749999,-0.31840771484374997,10.198623046875,0.0,-0.0010652644360316954,0.0,358.03803001897126,358.764568951201,38.63481795216863
2026-09-29 19:10:50.784159488,0.26334472656249996,-0.3495302734375,10.17707666015625,0.0,0.0,0.0,358.03861080460615,358.7640949908884,38.63502994732448
2026-09-29 19:10:50.798681600,0.22025195312499998,-0.36150048828125,10.19144091796875,0.0,0.0,0.0,358.0390305222074,358.7638718265933,38.634929947470354
2026-09-29 19:10:50.814337280,0.2537685546875,-0.33995410156249994,10.17707666015625,0.0,-0.0010652644360316954,-0.0010652644360316954,358.0393895644733,358.7634383151904,38.63423195363018
2026-09-29 19:10:50.814337280,0.20588769531249998,-0.33995410156249994,10.157924316406248,0.0,0.0,0.0,358.039395850784,358.76434183311954,38.634103046058726
2026-09-29 19:10:50.829960960,0.22504003906249997,-0.3112255859375,10.189046874999999,-0.0010652644360316954,-0.0010652644360316954,0.0,358.03903040421187,358.7647188280096,38.63430511538106
2026-09-29 19:10:50.845584896,0.22025195312499998,-0.32558984375,10.184258789062499,0.0,-0.0010652644360316954,-0.0010652644360316954,358.0390401418334,358.7640843453005,38.63422171559945
2026-09-29 19:10:50.845584896,0.24419238281249997,-0.36389453125,10.155530273437499,0.0,0.0,-0.0010652644360316954,358.0392579063628,358.76464759738053,38.633804232009425
2026-09-29 19:10:50.861211648,0.20349365234374997,-0.32558984375,10.2034111328125,0.0,0.0,0.0,358.0390055781964,358.7648754995199,38.63339017097826
2026-09-29 19:10:50.861211648,0.23461621093749999,-0.33756005859375,10.18186474609375,0.0,0.0,0.0,358.0397451368866,358.7650357629684,38.633283259057706
2026-09-29 19:10:50.876851712,0.25616259765625,-0.35192431640625,10.201017089843749,0.0,0.0,0.0,358.04025525405746,358.7647502710354,38.633496691629766
2026-09-29 19:10:50.892457984,0.24419238281249997,-0.38065283203124994,10.18186474609375,0.0,-0.0010652644360316954,-0.0010652644360316954,358.0406200100094,358.76413560409304,38.633113899410624
2026-09-29 19:10:50.908086784,0.25137451171874997,-0.33756005859375,10.196229003906248,0.0,-0.0010652644360316954,0.0,358.04024287511754,358.7637797457154,38.63272352351025
2026-09-29 19:10:50.908086784,0.26573876953125,-0.34474218749999996,10.196229003906248,0.0,0.0,0.0,358.04051454712845,358.76367673911324,38.632620110632175
2026-09-29 19:10:50.923709952,0.22025195312499998,-0.3064375,10.2321396484375,0.0,0.0,0.0,358.0410682384268,358.76331049869003,38.63222273234372
2026-09-29 19:10:50.923709952,0.2154638671875,-0.35671240234374996,10.2321396484375,-0.0010652644360316954,-0.0010652644360316954,0.0,358.0406968151254,358.76361209225854,38.632424995902625
2026-09-29 19:10:50.939330304,0.30404345703124996,-0.33995410156249994,10.16989453125,0.0,0.0,0.0,358.0410709096981,358.76336919523675,38.63294632938338
2026-09-29 19:10:50.939330304,0.23222216796874998,-0.32558984375,10.162712402343749,0.0,0.0,0.0,358.04179145287566,358.7633135619992,38.633140899362054
2026-09-29 19:10:50.955917056,0.258556640625,-0.3208017578125,10.20819921875,0.0,0.0010652644360316954,0.0,358.0416383665647,358.76357577762826,38.63302966704575
2026-09-29 19:10:50.970944000,0.229828125,-0.36389453125,10.227351562499999,0.0,0.0,-0.0010652644360316954,358.0418861729232,358.763834496409,38.63291639237421
2026-09-29 19:10:50.970944000,0.23940429687499998,-0.34234814453124995,10.212987304687498,0.0,-0.0010652644360316954,0.0,358.042227368315,358.7637619495847,38.63281806429081
2026-09-29 19:10:50.986590208,0.24658642578124998,-0.33037792968749996,10.189046874999999,0.0,0.0,0.0,358.0425455737941,358.76324805577724,38.63303562180452
2026-09-29 19:10:51.002232320,0.24898046875,-0.33995410156249994,10.150742187499999,0.0,0.0,0.0,358.04268138312773,358.76355044265347,38.63322973882283
2026-09-29 19:10:51.002232320,0.19870556640624998,-0.35192431640625,10.162712402343749,0.0,0.0,0.0,358.0432017354611,358.7631373770006,38.63344291392581
2026-09-29 19:10:51.017840128,0.20588769531249998,-0.36389453125,10.167500488281249,0.0,0.0,0.0010652644360316954,358.0430331694559,358.7637381215194,38.63394185209894
2026-09-29 19:10:51.017840128,0.23222216796874998,-0.39501708984374995,10.18665283203125,-0.0010652644360316954,0.0,0.0,358.0427822272586,358.7635834573912,38.63415852380083
2026-09-29 19:10:51.033467392,0.201099609375,-0.335166015625,10.14834814453125,0.0,0.0,0.0,358.0421181224366,358.76385092681886,38.63436711319437
2026-09-29 19:10:51.050073088,0.26573876953125,-0.37107666015624996,10.21059326171875,0.0,-0.0010652644360316954,0.0010652644360316954,358.0419368522242,358.76370924762375,38.635192111952236
2026-09-29 19:10:51.065093120,0.20349365234374997,-0.32798388671874995,10.1268017578125,0.0,0.0,0.0,358.0419555913115,358.7630395556635,38.63541999160791
2026-09-29 19:10:51.065093120,0.229828125,-0.32558984375,10.18665283203125,0.0,-0.0010652644360316954,0.0,358.0422185346764,358.7628995845155,38.63532709945914
2026-09-29 19:10:51.098055680,0.24179833984375,-0.33756005859375,10.217775390624999,-0.0010652644360316954,-0.0010652644360316954,0.0,358.0416946233881,358.762521998967,38.63584799154929
2026-09-29 19:10:51.098055680,0.28010302734375,-0.34474218749999996,10.217775390624999,0.0,0.0,0.0,358.0426184153252,358.76248300758647,38.635743615408956
2026-09-29 19:10:51.098055680,0.24898046875,-0.39501708984374995,10.2321396484375,0.0,-0.0010652644360316954,0.0,358.04257191032605,358.76196356375203,38.635955881480285
2026-09-29 19:10:51.112094208,0.17715917968749997,-0.3782587890625,10.1363779296875,0.0,-0.0010652644360316954,0.0,358.04216941989284,358.7613383457475,38.63588125670838
2026-09-29 19:10:51.112094208,0.258556640625,-0.3495302734375,10.184258789062499,-0.0010652644360316954,-0.0010652644360316954,0.0,358.0414920930843,358.76179937164693,38.636090106866575
2026-09-29 19:10:51.127740928,0.2537685546875,-0.335166015625,10.20819921875,0.0,-0.0021305288720633907,0.0,358.0410910516912,358.76134038014663,38.63661878207597
2026-09-29 19:10:51.127740928,0.2537685546875,-0.36389453125,10.141166015624998,0.0,-0.0010652644360316954,0.0,358.0406515848886,358.7606045301622,38.63623357363063
2026-09-29 19:10:51.144788736,0.24658642578124998,-0.3112255859375,10.17707666015625,0.0,-0.0021305288720633907,0.0,358.04030756654157,358.75995344970397,38.637072522696975
2026-09-29 19:10:51.174995712,0.24179833984375,-0.33756005859375,10.172288574218749,0.0,0.0,0.0,358.0410789305538,358.75958594909815,38.63697538502152
2026-09-29 19:10:51.174995712,0.23222216796874998,-0.35431835937499995,10.246503906249998,0.0,0.0,0.0,358.04126162516496,358.75957192441956,38.6371788900624
2026-09-29 19:10:51.174995712,0.22743408203124998,-0.32319580078125,10.18665283203125,0.0,-0.0010652644360316954,0.0,358.0409824525116,358.7591391637898,38.63739623292084
2026-09-29 19:10:51.190612736,0.23222216796874998,-0.32319580078125,10.234533691406249,0.0,0.0,0.0,358.04159191730224,358.75899638567165,38.63791253753287
2026-09-29 19:10:51.206289408,0.23701025390624997,-0.35431835937499995,10.2034111328125,0.0,-0.0021305288720633907,0.0,358.0417562184047,358.7581634205488,38.63813719841645
2026-09-29 19:10:51.221944576,0.3112255859375,-0.32798388671874995,10.117225585937499,0.0,0.0,0.0,358.0415680168709,358.7579110621029,38.63865742381868
2026-09-29 19:10:51.221944576,0.24658642578124998,-0.33756005859375,10.2321396484375,0.0,0.0,0.0,358.04196186021136,358.75798075951,38.638845829590075
2026-09-29 19:10:51.237565952,0.2537685546875,-0.33995410156249994,10.155530273437499,0.0,0.0,0.0,358.04207864373706,358.7575085828366,38.63845128286712
2026-09-29 19:10:51.237565952,0.2537685546875,-0.37107666015624996,10.1651064453125,-0.0021305288720633907,-0.0010652644360316954,0.0,358.04104558983175,358.7573306659267,38.63866510850061
2026-09-29 19:10:51.253207296,0.29207324218749997,-0.35192431640625,10.212987304687498,0.0,0.0,-0.0010652644360316954,358.0409831036142,358.7572380694483,38.63826411525121
2026-09-29 19:10:51.268816384,0.23701025390624997,-0.3495302734375,10.172288574218749,-0.0010652644360316954,0.0,0.0,358.04096868402075,358.7571782992833,38.6378553691219
2026-09-29 19:10:51.268816384,0.24179833984375,-0.36389453125,10.212987304687498,0.0,0.0,0.0,358.04105937200865,358.7574099884404,38.637745505482044
2026-09-29 19:10:51.284439040,0.20588769531249998,-0.335166015625,10.16989453125,0.0,0.0,0.0,358.04128608361776,358.7580672432037,38.63762219405893
2026-09-29 19:10:51.284439040,0.22743408203124998,-0.33995410156249994,10.1938349609375,0.0,-0.0010652644360316954,0.0,358.04130163093174,358.7581918083208,38.63782924545056
2026-09-29 19:10:51.301524480,0.25137451171874997,-0.3208017578125,10.133983886718749,0.0,0.0,0.0,358.04129701078796,358.7579286065043,38.637437372102106
2026-09-29 19:10:51.301524480,0.23940429687499998,-0.33756005859375,10.205805175781249,0.0,0.0,0.0,358.04133366413623,358.75891890899896,38.63730113955159
2026-09-29 19:10:51.319178752,0.22743408203124998,-0.32319580078125,10.141166015624998,-0.0010652644360316954,0.0,0.0,358.0409734579854,358.75957784146743,38.63748233963202
2026-09-29 19:10:51.331704064,0.21067578124999997,-0.3208017578125,10.112437499999999,-0.0010652644360316954,-0.0021305288720633907,0.0,358.0408134579718,358.7594850690407,38.63769711560897
2026-09-29 19:10:51.347351808,0.2824970703125,-0.32558984375,10.179470703124998,0.0,0.0,0.0,358.04113394714017,358.75898331758003,38.63761363876518
2026-09-29 19:10:51.347351808,0.20588769531249998,-0.3112255859375,10.1746826171875,-0.0010652644360316954,-0.0021305288720633907,0.0,358.04078371955546,358.75818311217307,38.637836326170735
2026-09-29 19:10:51.367706624,0.26573876953125,-0.33277197265624997,10.112437499999999,0.0,-0.0010652644360316954,0.0,358.04054688342023,358.7583152453111,38.63803571816761
2026-09-29 19:10:51.367706624,0.24658642578124998,-0.34713623046875,10.167500488281249,0.0,0.0,0.0,358.04042673865564,358.75872991484607,38.63853374666477
2026-09-29 19:10:51.379510528,0.23940429687499998,-0.33995410156249994,10.201017089843749,0.0010652644360316954,0.0,0.0,358.0408425344772,358.7582567860824,38.6384442275025
2026-09-29 19:10:51.394685184,0.27531494140624996,-0.31601367187499996,10.100467285156249,-0.0021305288720633907,0.0,-0.0010652644360316954,358.0401340374413,358.75831092594257,38.63802694001194
2026-09-29 19:10:51.399598592,0.23222216796874998,-0.31840771484374997,10.167500488281249,0.0,0.0,0.0,358.040803240239,358.7579057163132,38.6379319479579
2026-09-29 19:10:51.410633216,0.27531494140624996,-0.31361962890624995,10.2034111328125,0.0,0.0,0.0,358.04173324235745,358.75748739586936,38.638142874401126
2026-09-29 19:10:51.442168320,0.23222216796874998,-0.31840771484374997,10.124407714843748,0.0,-0.0010652644360316954,0.0,358.04208750601,358.75715021924265,38.638353085549795
2026-09-29 19:10:51.459281408,0.27052685546875,-0.32319580078125,10.117225585937499,0.0,-0.0010652644360316954,0.0,358.04208149883425,358.75689576903847,38.63825954013373
2026-09-29 19:10:51.459281408,0.23701025390624997,-0.33756005859375,10.14356005859375,0.0,-0.0010652644360316954,0.0,358.0421151878063,358.75651595405367,38.63847016549785
2026-09-29 19:10:51.489439744,0.27770898437499997,-0.33756005859375,10.234533691406249,0.0,-0.0010652644360316954,0.0,358.0423882216529,358.75590611433324,38.63930238902069
2026-09-29 19:10:51.505064192,0.25137451171874997,-0.34234814453124995,10.179470703124998,0.0,0.0,0.0,358.0427954467876,358.7556982453812,38.63981269537937
2026-09-29 19:10:51.505064192,0.22743408203124998,-0.35671240234374996,10.162712402343749,0.0,0.0,0.0,358.0428942306893,358.7561289280812,38.63939767306532
2026-09-29 19:10:51.505064192,0.258556640625,-0.3495302734375,10.133983886718749,-0.0021305288720633907,0.0,0.0,358.04247557842484,358.75591062243933,38.63899112578483
2026-09-29 19:10:51.505064192,0.25616259765625,-0.35910644531249997,10.184258789062499,0.0,-0.0010652644360316954,0.0,358.04164219525956,358.75569596127536,38.63980672467854
2026-09-29 19:10:51.505064192,0.229828125,-0.35910644531249997,10.172288574218749,0.0,-0.0010652644360316954,0.0,358.04162527844755,358.75516870959945,38.640025016396315
2026-09-29 19:10:51.536327680,0.258556640625,-0.34713623046875,10.16989453125,0.0,0.0,-0.0010652644360316954,358.04194626514715,358.7556833597052,38.63930034480115
2026-09-29 19:10:51.536327680,0.24179833984375,-0.36389453125,10.201017089843749,0.0,-0.0010652644360316954,0.0,358.04218726534566,358.75521121826154,38.639817972590265
2026-09-29 19:10:51.551944704,0.25137451171874997,-0.32798388671874995,10.100467285156249,0.0,0.0,-0.0010652644360316954,358.04188510824173,358.7550924147286,38.63941553996503
2026-09-29 19:10:51.551944704,0.22743408203124998,-0.36150048828125,10.160318359375,0.0,0.0,0.0,358.04234663884375,358.7551604763905,38.63900979074407
2026-09-29 19:10:51.551944704,0.21785791015624997,-0.34474218749999996,10.19144091796875,-0.0010652644360316954,0.0,0.0,358.04184434688267,358.7550921773576,38.6389099459767
2026-09-29 19:10:51.551944704,0.24179833984375,-0.35431835937499995,10.11961962890625,0.0,-0.0021305288720633907,-0.0010652644360316954,358.04167709947467,358.7546213632056,38.638525490229846
2026-09-29 19:10:51.567570432,0.22025195312499998,-0.32798388671874995,10.20819921875,0.0,0.0,-0.0010652644360316954,358.0414509129945,358.7546381276224,38.638121426353656
2026-09-29 19:10:51.567570432,0.24419238281249997,-0.3064375,10.184258789062499,0.0,-0.0021305288720633907,-0.0010652644360316954,358.0411275829747,358.7537266540301,38.63743914366484
2026-09-29 19:10:51.583190016,0.24658642578124998,-0.3495302734375,10.196229003906248,0.0,0.0,0.0,358.0413694180523,358.753511508295,38.63764508219308
2026-09-29 19:10:51.605777152,0.22504003906249997,-0.32798388671874995,10.222563476562499,0.0,-0.0010652644360316954,0.0,358.04177072725906,358.7527852146021,38.63787123034226
2026-09-29 19:10:51.605777152,0.2681328125,-0.32319580078125,10.1651064453125,0.0,0.0,0.0,358.0423621899442,358.75268114606814,38.63868229027651
2026-09-29 19:10:51.614790400,0.24419238281249997,-0.36868261718749995,10.234533691406249,0.0,0.0,0.0,358.0431204553566,358.7522166496274,38.63858546614138
2026-09-29 19:10:51.630573056,0.21785791015624997,-0.34234814453124995,10.24889794921875,-0.0010652644360316954,-0.0010652644360316954,0.0,358.04295317357213,358.75192724464927,38.638495366971306
2026-09-29 19:10:51.632198912,0.21785791015624997,-0.35910644531249997,10.217775390624999,0.0,-0.0010652644360316954,0.0,358.04254835768825,358.75202405165567,38.63869833745235
2026-09-29 19:10:51.646230784,0.24179833984375,-0.35671240234374996,10.160318359375,0.0,-0.0010652644360316954,0.0,358.0420143179943,358.75178272468276,38.63891449033302
2026-09-29 19:10:51.646230784,0.24898046875,-0.35910644531249997,10.133983886718749,-0.0010652644360316954,0.0,0.0,358.04154848550326,358.75219029518684,38.638803441666234
2026-09-29 19:10:51.662184192,0.23701025390624997,-0.34234814453124995,10.095679199218749,0.0,0.0,0.0,358.04161345881863,358.7517951797112,38.6390198568245
2026-09-29 19:10:51.677835008,0.26334472656249996,-0.3208017578125,10.205805175781249,0.0,0.0,0.0,358.0421769588124,358.75139748616544,38.63923210315431
2026-09-29 19:10:51.693908224,0.23222216796874998,-0.34713623046875,10.227351562499999,0.0,-0.0021305288720633907,0.0,358.0426169744847,358.75015483453956,38.63946124511205
2026-09-29 19:10:51.693908224,0.2154638671875,-0.33037792968749996,10.196229003906248,0.0,0.0,0.0,358.04334746927617,358.7495955988599,38.639991972483664
2026-09-29 19:10:51.709810688,0.22743408203124998,-0.31840771484374997,10.212987304687498,0.0,0.0,-0.0010652644360316954,358.04361205128913,358.74963907024113,38.63988874315106
2026-09-29 19:10:51.709810688,0.24179833984375,-0.3112255859375,10.2034111328125,0.0,0.0,0.0,358.04385788486536,358.7500440975674,38.63947052620722
2026-09-29 19:10:51.725464832,0.2537685546875,-0.35671240234374996,10.17707666015625,0.0,-0.0010652644360316954,-0.0010652644360316954,358.04459091165745,358.7494264057305,38.63907972214831
2026-09-29 19:10:51.741084160,0.2681328125,-0.32798388671874995,10.15313623046875,0.0,-0.0010652644360316954,0.0,358.04495556561324,358.7487128720649,38.63900168527323
2026-09-29 19:10:51.741084160,0.28010302734375,-0.30404345703124996,10.19144091796875,0.0,0.0,0.0,358.04560356809833,358.74815680507015,38.639212177152956
2026-09-29 19:10:51.756870656,0.21067578124999997,-0.33277197265624997,10.179470703124998,0.0,0.0,0.0,358.0465287599925,358.74774901615865,38.63971776751502
2026-09-29 19:10:51.772520192,0.25616259765625,-0.33756005859375,10.179470703124998,0.0,-0.0010652644360316954,0.0,358.0470500811298,358.7471247483432,38.639951801724585
2026-09-29 19:10:51.780457216,0.24658642578124998,-0.35192431640625,10.20819921875,0.0,0.0,0.0,358.0471793851098,358.7472220710815,38.64015640022426
2026-09-29 19:10:51.811968512,0.26095068359374995,-0.34234814453124995,10.157924316406248,0.0,-0.0010652644360316954,0.0,358.0473757255318,358.7472269925051,38.640359608964225
2026-09-29 19:10:51.819730944,0.26334472656249996,-0.37347070312499997,10.179470703124998,0.0,0.0,0.0,358.04719062756357,358.74719897407385,38.64056441457144
2026-09-29 19:10:51.839449600,0.23222216796874998,-0.35431835937499995,10.172288574218749,0.0,-0.0010652644360316954,0.0,358.0468324998785,358.7464237796535,38.64079387928817
2026-09-29 19:10:51.867333376,0.22504003906249997,-0.35192431640625,10.22495751953125,0.0,0.0,0.0,358.0468542724297,358.7463211927368,38.640696014623224
2026-09-29 19:10:51.882965504,0.22264599609375,-0.34474218749999996,10.212987304687498,0.0,-0.0010652644360316954,0.0010652644360316954,358.0466537170994,358.74611878463026,38.64152148716853
2026-09-29 19:10:51.882965504,0.24179833984375,-0.33995410156249994,10.1746826171875,0.0,0.0,-0.0010652644360316954,358.0461410749935,358.7461220489524,38.64111703519504
2026-09-29 19:10:51.898770944,0.22264599609375,-0.36868261718749995,10.1651064453125,0.0,0.0,0.0,358.04658802724697,358.7467480870256,38.64099561489122
2026-09-29 19:10:51.900267264,0.23701025390624997,-0.335166015625,10.1746826171875,0.0,-0.0010652644360316954,0.0,358.0466406853964,358.74665681914865,38.64121231759374
2026-09-29 19:10:51.900267264,0.2824970703125,-0.3208017578125,10.21538134765625,0.0,0.0,0.0,358.0464490972787,358.746262896275,38.641427854077236
2026-09-29 19:10:51.907450624,0.229828125,-0.34713623046875,10.20819921875,0.0,0.0,-0.0010652644360316954,358.046744910433,358.7460939901054,38.64101906122744
2026-09-29 19:10:51.907450624,0.25137451171874997,-0.3495302734375,10.19144091796875,0.0,-0.0010652644360316954,0.0,358.04659086883885,358.745721284382,38.64123360844658
2026-09-29 19:10:51.913470976,0.25616259765625,-0.34234814453124995,10.227351562499999,0.0,0.0,0.0,358.04672672378024,358.745279210701,38.64083880647847
2026-09-29 19:10:51.914986240,0.24658642578124998,-0.3782587890625,10.160318359375,0.0,-0.0010652644360316954,-0.0010652644360316954,358.0463884198063,358.74479565508443,38.64044767233988
2026-09-29 19:10:51.914986240,0.229828125,-0.3495302734375,10.138771972656249,0.0,0.0,0.0,358.04681575035454,358.7446222784661,38.640662900761235
2026-09-29 19:10:51.930494720,0.21067578124999997,-0.31601367187499996,10.21538134765625,0.0,-0.0010652644360316954,0.0,358.0470457009637,358.7446543258986,38.64086546556436
2026-09-29 19:10:51.938046976,0.23461621093749999,-0.3208017578125,10.138771972656249,0.0,-0.0021305288720633907,0.0,358.04740568362945,358.7439117698818,38.64109620661303
2026-09-29 19:10:51.947571712,0.23940429687499998,-0.335166015625,10.189046874999999,0.0,0.0,0.0,358.0483118977104,358.7439727550617,38.641297195127926
2026-09-29 19:10:51.962695936,0.21785791015624997,-0.31601367187499996,10.184258789062499,0.0,0.0,0.0,358.04881474806615,358.7441503220804,38.641489938900435
2026-09-29 19:10:51.965044992,0.24419238281249997,-0.34234814453124995,10.138771972656249,0.0,-0.0021305288720633907,0.0,358.04899284109956,358.743584251272,38.641409394927464
2026-09-29 19:10:51.979564544,0.2537685546875,-0.33277197265624997,10.256080078124999,0.0,0.0,0.0,358.04874509747987,358.7442627144075,38.641899806309056
2026-09-29 19:10:51.984523264,0.22743408203124998,-0.34713623046875,10.2034111328125,0.0,0.0010652644360316954,0.0,358.0487531468806,358.74467999983676,38.64208641875104
2026-09-29 19:10:51.994533376,0.23940429687499998,-0.33995410156249994,10.167500488281249,0.0,-0.0010652644360316954,-0.0010652644360316954,358.0491897269772,358.7440776531881,38.642006872242796
2026-09-29 19:10:52.010376448,0.22264599609375,-0.33277197265624997,10.21059326171875,0.0,-0.0010652644360316954,0.0,358.0493777255907,358.7443034692641,38.641600394180266
2026-09-29 19:10:52.025998080,0.22264599609375,-0.33995410156249994,10.184258789062499,0.0,-0.0021305288720633907,0.0,358.0487356323641,358.7436328522559,38.64152808417088
2026-09-29 19:10:52.025998080,0.27052685546875,-0.335166015625,10.157924316406248,0.0,-0.0010652644360316954,0.0,358.04912573449866,358.7437110203481,38.642038673981396
2026-09-29 19:10:52.041648384,0.23222216796874998,-0.33995410156249994,10.2417158203125,-0.0010652644360316954,0.0,0.0,358.04878591270216,358.74359453236616,38.64224026189855
2026-09-29 19:10:52.041648384,0.23461621093749999,-0.33277197265624997,10.184258789062499,0.0010652644360316954,0.0,-0.0010652644360316954,358.0495288896227,358.74353804134995,38.642139986897334
2026-09-29 19:10:52.057785344,0.24419238281249997,-0.33995410156249994,10.201017089843749,0.0,0.0010652644360316954,-0.0010652644360316954,358.04938305052633,358.74459503538094,38.64139411560555
2026-09-29 19:10:52.057785344,0.24419238281249997,-0.36628857421875,10.227351562499999,0.0,0.0,0.0,358.05032789629263,358.7444285113805,38.640972861767345
2026-09-29 19:10:52.073431552,0.2537685546875,-0.36389453125,10.1651064453125,0.0,0.0031957933080950856,0.0,358.0506064126368,358.74577216537716,38.64050761076688
2026-09-29 19:10:52.091589376,0.2729208984375,-0.34234814453124995,10.157924316406248,0.0,-0.0010652644360316954,-0.0031957933080950856,358.05042201705487,358.7452170612317,38.6388816921307
2026-09-29 19:10:52.101127424,0.23222216796874998,-0.30883154296875,10.196229003906248,0.0,0.0,0.0,358.05063397166356,358.7454372448305,38.63845262987341
2026-09-29 19:10:52.105744640,0.24898046875,-0.31361962890624995,10.167500488281249,0.0,0.0010652644360316954,0.0,358.0500304250985,358.7459681938856,38.638316044493926
2026-09-29 19:10:52.121192960,0.24179833984375,-0.33277197265624997,10.21538134765625,0.0,0.0,0.0,358.05028914730804,358.74621900629967,38.63818429776507
2026-09-29 19:10:52.121192960,0.20349365234374997,-0.36868261718749995,10.205805175781249,0.0,0.0010652644360316954,0.0,358.05049900844165,358.74632069565973,38.63775537265616
2026-09-29 19:10:52.137439232,0.25137451171874997,-0.36868261718749995,10.198623046875,0.0,0.0010652644360316954,-0.0010652644360316954,358.05054281539606,358.74666743347325,38.637025127625016
2026-09-29 19:10:52.137439232,0.23222216796874998,-0.34713623046875,10.155530273437499,0.0,0.0,0.0,358.0500959002814,358.7475583697961,38.63657649147347
2026-09-29 19:10:52.170631680,0.22743408203124998,-0.36868261718749995,10.2321396484375,0.0,0.0,-0.0010652644360316954,358.04967478571314,358.74821279196607,38.63613756800751
2026-09-29 19:10:52.170631680,0.24419238281249997,-0.35192431640625,10.21538134765625,0.0,0.0,-0.0010652644360316954,358.0494455413186,358.7485596597002,38.635711538160244
2026-09-29 19:10:52.201708032,0.21785791015624997,-0.33995410156249994,10.21059326171875,0.0,0.0,-0.0021305288720633907,358.04899787306704,358.74918580895786,38.634663327903276
2026-09-29 19:10:52.201708032,0.2537685546875,-0.35910644531249997,10.172288574218749,0.0,0.0,-0.0010652644360316954,358.04900808138825,358.7498340060316,38.633916624853605
2026-09-29 19:10:52.231874560,0.24898046875,-0.33277197265624997,10.201017089843749,0.0010652644360316954,0.0010652644360316954,-0.0010652644360316954,358.0494178859832,358.750501460779,38.63346916327147
2026-09-29 19:10:52.231874560,0.21785791015624997,-0.31840771484374997,10.172288574218749,0.0,0.0,-0.0010652644360316954,358.0497139182352,358.7513655054213,38.63301760538803
2026-09-29 19:10:52.231874560,0.26573876953125,-0.32798388671874995,10.229745605468748,0.0,0.0010652644360316954,-0.0010652644360316954,358.0502895277506,358.75168952087137,38.6322822569141
2026-09-29 19:10:52.231874560,0.18912939453125,-0.35431835937499995,10.217775390624999,0.0,0.0,-0.0010652644360316954,358.05015129581585,358.7513931564536,38.631553010938916
2026-09-29 19:10:52.231874560,0.22504003906249997,-0.32319580078125,10.25847412109375,0.0,0.0,0.0,358.0502988459055,358.75141262733024,38.6314511359215
2026-09-29 19:10:52.248014592,0.24419238281249997,-0.3782587890625,10.21538134765625,0.0,0.0,-0.0021305288720633907,358.051102462612,358.7517730452517,38.63040605495611
2026-09-29 19:10:52.248014592,0.23222216796874998,-0.35192431640625,10.0980732421875,0.0,-0.0031957933080950856,-0.0021305288720633907,358.05057955231405,358.75156077600025,38.629085795353284
2026-09-29 19:10:52.264594176,0.2824970703125,-0.34713623046875,10.141166015624998,-0.0010652644360316954,-0.0021305288720633907,-0.0010652644360316954,358.05053260120195,358.7523859665269,38.62864539291871
2026-09-29 19:10:52.279626240,0.26095068359374995,-0.33756005859375,10.4140869140625,0.0010652644360316954,0.005326322180158476,-0.0010652644360316954,358.051202251825,358.7534493855184,38.62787328139495
2026-09-29 19:10:52.279626240,0.27052685546875,-0.33756005859375,9.990341308593749,0.0010652644360316954,-0.005326322180158476,0.0,358.05164472873895,358.75138230902286,38.62781681638366
2026-09-29 19:10:52.295279360,0.20349365234374997,-0.3064375,10.2704443359375,-0.0021305288720633907,0.004261057744126781,-0.0021305288720633907,358.05250851290145,358.75355204480263,38.62731442647425
2026-09-29 19:10:52.311335936,0.24179833984375,-0.34234814453124995,10.18186474609375,0.007456851052221867,0.0,0.0,358.05380330380854,358.7528937672021,38.626912972635346
2026-09-29 19:10:52.326962176,0.21067578124999997,-0.32319580078125,10.07652685546875,-0.004261057744126781,-0.0031957933080950856,-0.0010652644360316954,358.0540966050931,358.7533802863806,38.62616024582283
2026-09-29 19:10:52.329761280,0.19152343749999998,-0.32798388671874995,10.294384765624999,0.0010652644360316954,0.004261057744126781,0.0,358.0537387000278,358.7547912514548,38.6256992390537
2026-09-29 19:10:52.342790144,0.23222216796874998,-0.32798388671874995,10.1938349609375,0.0,-0.0010652644360316954,0.0,358.05385483432315,358.75470203463254,38.625286434449826
2026-09-29 19:10:52.342790144,0.229828125,-0.33037792968749996,10.11483154296875,0.0,0.0,-0.0010652644360316954,358.05425266284203,358.75485449502776,38.62486375095263
2026-09-29 19:10:52.358430976,0.20349365234374997,-0.33756005859375,10.244109863281249,0.0,0.0021305288720633907,0.0,358.053867422938,358.75499300073864,38.624739436701624
2026-09-29 19:10:52.374053888,0.296861328125,-0.37107666015624996,10.1268017578125,0.0,-0.0010652644360316954,0.0,358.05350145937547,358.7544956704606,38.624645765617274
2026-09-29 19:10:52.382033664,0.22743408203124998,-0.35910644531249997,10.251291992187499,0.0,0.0010652644360316954,-0.0010652644360316954,358.0529387620135,358.75496390608265,38.624199656779865
2026-09-29 19:10:52.391425024,0.258556640625,-0.32798388671874995,10.184258789062499,0.0,0.0,0.0,358.0524611293874,358.75428870282485,38.62380348285362
2026-09-29 19:10:52.406391296,0.23940429687499998,-0.32798388671874995,10.198623046875,0.0,0.0,0.0,358.05272300783747,358.7546070926547,38.62336312241739
2026-09-29 19:10:52.422027008,0.26573876953125,-0.35910644531249997,10.18665283203125,0.0,0.0,0.0,358.0516985432148,358.7545336719442,38.62264007246118
2026-09-29 19:10:52.422027008,0.23222216796874998,-0.35910644531249997,10.244109863281249,-0.0010652644360316954,0.0,0.0,358.05179663162244,358.7543455100637,38.622522332587145
2026-09-29 19:10:52.454919424,0.23701025390624997,-0.33756005859375,10.14356005859375,0.0,0.0,-0.0021305288720633907,358.05155163352003,358.7545076719182,38.62180219423693
2026-09-29 19:10:52.461815552,0.22264599609375,-0.33277197265624997,10.20819921875,-0.0010652644360316954,0.0,-0.0021305288720633907,358.05092939920735,358.75427464034965,38.620467113584205
2026-09-29 19:10:52.463576832,0.26334472656249996,-0.37107666015624996,10.122013671875,0.0010652644360316954,-0.0010652644360316954,-0.0010652644360316954,358.05153072735413,358.7539907396332,38.61944725534247
2026-09-29 19:10:52.464145920,0.23222216796874998,-0.32319580078125,10.20819921875,0.0,0.0,-0.0010652644360316954,358.05158146573405,358.7534259293323,38.619042536903486
2026-09-29 19:10:52.469276928,0.24179833984375,-0.35192431640625,10.184258789062499,-0.0010652644360316954,0.0,-0.0010652644360316954,358.05069393754275,358.7537272586592,38.618305861939525
2026-09-29 19:10:52.485286144,0.24898046875,-0.33995410156249994,10.15313623046875,0.0,0.0010652644360316954,-0.0010652644360316954,358.0512138311648,358.75382133557184,38.6175718943743
2026-09-29 19:10:52.487140352,0.2537685546875,-0.3208017578125,10.1746826171875,-0.0010652644360316954,0.0,-0.0021305288720633907,358.0503671289329,358.7537752028316,38.6162246292353
2026-09-29 19:10:52.502133760,0.22504003906249997,-0.33995410156249994,10.14356005859375,0.0,0.0,-0.0010652644360316954,358.0500906505916,358.7536444186629,38.61580334058637
2026-09-29 19:10:52.506818816,0.24179833984375,-0.34713623046875,10.189046874999999,0.0,0.0,-0.0010652644360316954,358.050312720916,358.7535952355062,38.61568936356572
2026-09-29 19:10:52.531912704,0.24898046875,-0.33995410156249994,10.157924316406248,0.0,0.0,0.0,358.0499414415974,358.75333074576065,38.61528051120813
2026-09-29 19:10:52.563536128,0.2824970703125,-0.32798388671874995,10.222563476562499,0.0,0.0010652644360316954,-0.0010652644360316954,358.0503811585684,358.75425837608867,38.614520790447
2026-09-29 19:10:52.576903424,0.24179833984375,-0.32319580078125,10.133983886718749,0.0,0.0,-0.0010652644360316954,358.0502382867949,358.7538567093978,38.61379826454153
2026-09-29 19:10:52.598034176,0.24658642578124998,-0.34713623046875,10.155530273437499,0.0,-0.0010652644360316954,0.0,358.0500642946707,358.75360858780476,38.61338517732653
2026-09-29 19:10:52.598034176,0.24898046875,-0.34474218749999996,10.138771972656249,0.0,0.0,-0.0010652644360316954,358.0502766854423,358.752931691127,38.61267571132973
2026-09-29 19:10:52.598034176,0.2154638671875,-0.29925537109375,10.196229003906248,-0.0010652644360316954,0.0,-0.0010652644360316954,358.0490746788178,358.7523576995697,38.61196002039673
2026-09-29 19:10:52.611044096,0.28489111328125,-0.33756005859375,10.268050292968748,0.0,0.0,-0.0021305288720633907,358.04871869058746,358.75260492495227,38.61031418569007
2026-09-29 19:10:52.611044096,0.25137451171874997,-0.33277197265624997,10.117225585937499,0.0,-0.0010652644360316954,-0.0021305288720633907,358.0492480084575,358.75204486397934,38.60929579120979
2026-09-29 19:10:52.611044096,0.22264599609375,-0.34234814453124995,10.196229003906248,0.0,0.0,-0.0010652644360316954,358.048765818836,358.7515757606948,38.608577674806575
2026-09-29 19:10:52.611044096,0.2154638671875,-0.32798388671874995,10.244109863281249,0.0,0.0,-0.0010652644360316954,358.04780542993547,358.75274382694266,38.60811646143578
2026-09-29 19:10:52.611044096,0.24898046875,-0.3495302734375,10.1746826171875,0.0010652644360316954,0.0010652644360316954,-0.0010652644360316954,358.0491384449291,358.7531516553653,38.607377993764885
2026-09-29 19:10:52.628281600,0.229828125,-0.36150048828125,10.13158984375,0.0,0.0,0.0,358.0482033296273,358.75348591340145,38.607546797469276
2026-09-29 19:10:52.642430464,0.26334472656249996,-0.33277197265624997,10.184258789062499,-0.0010652644360316954,0.0,-0.0010652644360316954,358.0480306425141,358.753938525847,38.60711945404724
2026-09-29 19:10:52.649284096,0.24419238281249997,-0.39501708984374995,10.239321777343749,0.0,0.0,0.0,358.0469910652708,358.75489429534946,38.60665987709456
2026-09-29 19:10:52.658290176,0.21067578124999997,-0.3208017578125,10.0980732421875,0.0,0.0,-0.0010652644360316954,358.04758131888525,358.75425580326555,38.606267087230684
2026-09-29 19:10:52.664257280,0.229828125,-0.34474218749999996,10.138771972656249,-0.0031957933080950856,0.0010652644360316954,0.0,358.04624754819156,358.75506156940315,38.60612640725128
2026-09-29 19:10:52.673494016,0.25137451171874997,-0.33037792968749996,10.16989453125,0.0,-0.0021305288720633907,-0.0010652644360316954,358.04611473592814,358.7540532138773,38.6054349215019
2026-09-29 19:10:52.689385216,0.2537685546875,-0.3112255859375,10.217775390624999,-0.0010652644360316954,0.0,-0.0010652644360316954,358.04617820072923,358.75345027395065,38.605023350518344
2026-09-29 19:10:52.693207552,0.24179833984375,-0.34713623046875,10.133983886718749,0.0,-0.0010652644360316954,-0.0021305288720633907,358.0453655965616,358.7526109255668,38.604316378022574
2026-09-29 19:10:52.705253376,0.21785791015624997,-0.35192431640625,10.16989453125,0.0,0.0,-0.0010652644360316954,358.04561753733424,358.7526456951461,38.603591912531755
2026-09-29 19:10:52.721111552,0.258556640625,-0.33037792968749996,10.239321777343749,0.0,0.0010652644360316954,0.0,358.0450121239904,358.75318903529734,38.60345517419156
2026-09-29 19:10:52.721111552,0.24898046875,-0.35671240234374996,10.122013671875,0.0,0.0,0.0,358.04559582875675,358.7530064198229,38.60304552768677
2026-09-29 19:10:52.736987648,0.19870556640624998,-0.34234814453124995,10.227351562499999,-0.0021305288720633907,0.0,0.0,358.04380685806154,358.7535243011752,38.60260976289162
2026-09-29 19:10:52.752660224,0.258556640625,-0.34234814453124995,10.155530273437499,0.0031957933080950856,0.0,0.0,358.04484016003676,358.753796940996,38.602186561173625
2026-09-29 19:10:52.754260736,0.23940429687499998,-0.3208017578125,10.167500488281249,-0.0010652644360316954,0.0,0.0,358.04408708659963,358.75428375856853,38.602053139280365
2026-09-29 19:10:52.768500480,0.24179833984375,-0.36389453125,10.20819921875,0.0,0.0,-0.0010652644360316954,358.0439211136544,358.7546831394408,38.60131408011497
2026-09-29 19:10:52.768500480,0.26095068359374995,-0.36150048828125,10.2034111328125,-0.0010652644360316954,0.0,0.0,358.0437323815294,358.7545465917817,38.60150738124262
2026-09-29 19:10:52.784582656,0.25137451171874997,-0.36389453125,10.18665283203125,0.0,0.0,0.0,358.04307840974474,358.7544316371424,38.60108766451782
2026-09-29 19:10:52.801501440,0.23940429687499998,-0.335166015625,10.2034111328125,0.0,0.0,0.0,358.0431946006202,358.7541234797985,38.60067108018283
2026-09-29 19:10:52.801501440,0.2681328125,-0.33756005859375,10.1363779296875,0.0,0.0,0.0,358.04220852865893,358.7542665626556,38.60054650939888
2026-09-29 19:10:52.816013824,0.25137451171874997,-0.30883154296875,10.172288574218749,0.0,-0.0010652644360316954,-0.0010652644360316954,358.0420277170071,358.7539806119312,38.600123196838645
2026-09-29 19:10:52.831990784,0.21306982421874998,-0.34474218749999996,10.150742187499999,-0.0010652644360316954,0.0,0.0,358.0415339932564,358.7542016220867,38.59968955545925
2026-09-29 19:10:52.838330368,0.30404345703124996,-0.33277197265624997,10.399722656249999,-0.023435817592697295,0.011717908796348648,0.0010652644360316954,358.03464130371964,358.7580320828456,38.5997506501245
2026-09-29 19:10:52.848354816,0.17715917968749997,-0.40698730468749994,10.11483154296875,-0.023435817592697295,-0.004261057744126781,-0.0010652644360316954,358.0154400259602,358.763455187795,38.59945874007958
2026-09-29 19:10:52.866472704,0.16518896484374998,-0.22504003906249997,10.440421386718748,0.06072007285380663,0.0,-0.0010652644360316954,358.0398152282955,358.7576406877123,38.59893687173456
2026-09-29 19:10:52.869125376,0.26095068359374995,-0.41895751953125,9.892185546875,-0.0458063707493629,0.0010652644360316954,-0.0010652644360316954,358.02708325506353,358.75714633752824,38.597604305395265
2026-09-29 19:10:52.879276800,0.2729208984375,-0.36389453125,10.3039609375,0.019174759848570515,-0.005326322180158476,-0.0010652644360316954,358.0277659949698,358.75863147568043,38.59745414413752
2026-09-29 19:10:52.910992896,0.229828125,-0.29446728515625,10.102861328125,0.004261057744126781,0.004261057744126781,-0.0021305288720633907,358.0387712372887,358.75529171101033,38.59651103622973
2026-09-29 19:10:52.917337344,0.24419238281249997,-0.42374560546874995,10.212987304687498,-0.019174759848570515,0.0,0.0,358.0241362957378,358.7585616204223,38.596279824062606
2026-09-29 19:10:52.942490112,0.2681328125,-0.28967919921874996,10.167500488281249,0.029827404208887468,-0.0031957933080950856,0.0,358.03815972042145,358.7555540464647,38.59628252414293
2026-09-29 19:10:52.967148288,0.2681328125,-0.3878349609375,10.229745605468748,-0.024501082028728992,0.004261057744126781,0.0,358.02948508468626,358.7562990032549,38.59673462450769
2026-09-29 19:10:52.967878400,0.24658642578124998,-0.33756005859375,10.17707666015625,0.017044230976507126,-0.0021305288720633907,-0.0021305288720633907,358.0319243476193,358.7569097971118,38.596306198293206
2026-09-29 19:10:52.969160192,0.26095068359374995,-0.34474218749999996,10.15313623046875,-0.005326322180158476,0.0010652644360316954,-0.0010652644360316954,358.0356002789411,358.75619058324173,38.59559467007104
2026-09-29 19:10:52.970922496,0.201099609375,-0.37586474609375,10.21059326171875,-0.0031957933080950856,0.0,-0.0010652644360316954,358.02803210728064,358.7577001767782,38.59451709901023
2026-09-29 19:10:52.973375488,0.27531494140624996,-0.32319580078125,10.07652685546875,0.007456851052221867,0.0,0.0,358.0345453492212,358.75723357493194,38.59442668375541
2026-09-29 19:10:52.974386176,0.24179833984375,-0.36868261718749995,10.246503906249998,-0.010652644360316953,0.0031957933080950856,-0.0010652644360316954,358.02797756302124,358.7593457033692,38.59361401245927
2026-09-29 19:10:52.979785216,0.229828125,-0.28967919921874996,10.107649414062498,0.011717908796348648,0.0,-0.0010652644360316954,358.0330173059073,358.7587899167061,38.592912580613266
2026-09-29 19:10:52.990216192,0.201099609375,-0.32558984375,10.2321396484375,-0.010652644360316953,0.0031957933080950856,0.0,358.0300932327164,358.7602882507475,38.59243007260934
2026-09-29 19:10:53.006208512,0.24658642578124998,-0.35671240234374996,10.198623046875,0.006391586616190171,0.0,0.0,358.0308525474869,358.7610653806666,38.5919852803474
2026-09-29 19:10:53.007899392,0.2729208984375,-0.32798388671874995,10.1651064453125,0.0,0.0,0.0,358.0337485759533,358.76107933028055,38.591561374297854
2026-09-29 19:10:53.022215936,0.24179833984375,-0.35910644531249997,10.21059326171875,0.0,0.0010652644360316954,-0.0010652644360316954,358.0309770131634,358.76206295045273,38.591099294697365
2026-09-29 19:10:53.022215936,0.26095068359374995,-0.33277197265624997,10.172288574218749,0.0031957933080950856,0.0,0.0,358.03481620797805,358.7616342149448,38.59099676575924
2026-09-29 19:10:53.037856512,0.26573876953125,-0.37347070312499997,10.22016943359375,-0.004261057744126781,0.0,-0.0010652644360316954,358.03162943157724,358.7619703631767,38.590246500546485
2026-09-29 19:10:53.053483520,0.201099609375,-0.34713623046875,10.11004345703125,0.005326322180158476,-0.0021305288720633907,0.0,358.0340982961492,358.760277368256,38.590483475051435
2026-09-29 19:10:53.053483520,0.22025195312499998,-0.34713623046875,10.2034111328125,-0.004261057744126781,0.0,-0.0010652644360316954,358.03266620770756,358.7607036058704,38.590050212084805
2026-09-29 19:10:53.094044416,0.28489111328125,-0.3495302734375,10.124407714843748,0.004261057744126781,-0.0021305288720633907,-0.0010652644360316954,358.0338292301071,358.7595966613244,38.58936772337427
2026-09-29 19:10:53.094044416,0.24419238281249997,-0.33756005859375,10.179470703124998,0.0,0.0010652644360316954,-0.0021305288720633907,358.0345473141467,358.75992565829984,38.58831398696125
2026-09-29 19:10:53.100987392,0.28010302734375,-0.31601367187499996,10.20819921875,0.0,0.0,0.0,358.03367312785724,358.7606540480985,38.58816599268972
2026-09-29 19:10:53.102985728,0.22025195312499998,-0.35910644531249997,10.227351562499999,0.0010652644360316954,0.0,0.0,358.03592696089623,358.75997592827605,38.58805824457295
2026-09-29 19:10:53.104370432,0.22264599609375,-0.39022900390625,10.167500488281249,-0.0031957933080950856,0.0,-0.0010652644360316954,358.0341242245505,358.76030089181285,38.58732148474334
2026-09-29 19:10:53.128659456,0.229828125,-0.32558984375,10.184258789062499,0.0010652644360316954,0.0,0.0,358.03571516849996,358.7594229555156,38.58693731011791
2026-09-29 19:10:53.132147200,0.25616259765625,-0.34234814453124995,10.1938349609375,-0.0021305288720633907,-0.0010652644360316954,-0.0010652644360316954,358.03491018851497,358.7587687540499,38.58653516548607
2026-09-29 19:10:53.143494656,0.23461621093749999,-0.31361962890624995,10.17707666015625,0.0010652644360316954,0.0,-0.0010652644360316954,358.0356915173319,358.7578486657248,38.5858333502289
2026-09-29 19:10:53.152240896,0.26095068359374995,-0.30883154296875,10.179470703124998,-0.0010652644360316954,-0.0010652644360316954,0.0,358.0362835363064,358.7567891126869,38.58513286340751
2026-09-29 19:10:53.159227904,0.24419238281249997,-0.34474218749999996,10.184258789062499,0.0,0.0,0.0,358.03600304990294,358.7566563502745,38.58531486932611
2026-09-29 19:10:53.172483584,0.20588769531249998,-0.3208017578125,10.14834814453125,0.0,-0.0021305288720633907,-0.0021305288720633907,358.03602525401,358.7551702850994,38.58464108627772
2026-09-29 19:10:53.186046976,0.229828125,-0.32798388671874995,10.179470703124998,0.0,-0.0010652644360316954,-0.0010652644360316954,358.0354118824607,358.75428792868917,38.58394681223261
2026-09-29 19:10:53.192051712,0.24179833984375,-0.3208017578125,10.160318359375,0.0,0.0010652644360316954,-0.0021305288720633907,358.03619536025224,358.7540137041971,38.582912513973994
2026-09-29 19:10:53.208362752,0.23461621093749999,-0.33995410156249994,10.1746826171875,0.0,0.0,-0.0010652644360316954,358.03530039611377,358.7547764940673,38.58247050677667
2026-09-29 19:10:53.214373376,0.21785791015624997,-0.34474218749999996,10.246503906249998,0.0,0.0010652644360316954,-0.0010652644360316954,358.03594132043435,358.7548803793169,38.5817337699631
2026-09-29 19:10:53.223973376,0.2537685546875,-0.38065283203124994,10.13158984375,0.0,0.0,0.0,358.0349089338355,358.75497107029076,38.58130505044618
2026-09-29 19:10:53.231970560,0.2681328125,-0.335166015625,10.155530273437499,0.0,0.0,-0.0010652644360316954,358.0345104590016,358.7554410571,38.58056722147912
2026-09-29 19:10:53.246304000,0.23461621093749999,-0.37586474609375,10.256080078124999,-0.0010652644360316954,0.0,-0.0021305288720633907,358.03366668591644,358.7554046167451,38.57952476339999
2026-09-29 19:10:53.249823488,0.22504003906249997,-0.335166015625,10.124407714843748,0.0010652644360316954,0.0010652644360316954,-0.0010652644360316954,358.0339299406186,358.755568935882,38.57848461414809
2026-09-29 19:10:53.265337600,0.2681328125,-0.32798388671874995,10.15313623046875,-0.0031957933080950856,-0.0021305288720633907,-0.0021305288720633907,358.0337247227945,358.7549526826154,38.57716807470404
2026-09-29 19:10:53.265337600,0.28967919921874996,-0.37107666015624996,10.236927734375,-0.0010652644360316954,0.0,-0.0021305288720633907,358.0330276560029,358.7549812257977,38.57581747873593
2026-09-29 19:10:53.299504896,0.23461621093749999,-0.35431835937499995,10.17707666015625,0.0010652644360316954,0.0021305288720633907,0.0,358.0334750211384,358.75492171888413,38.575085048942114
2026-09-29 19:10:53.299504896,0.21785791015624997,-0.35431835937499995,10.234533691406249,-0.0010652644360316954,0.0,-0.0010652644360316954,358.0326629561084,358.7552525408326,38.574658257428986
2026-09-29 19:10:53.313520640,0.26573876953125,-0.32558984375,10.15313623046875,0.0,0.0,-0.0021305288720633907,358.03325305902234,358.75511597340005,38.573638627146444
2026-09-29 19:10:53.314078720,0.25616259765625,-0.34474218749999996,10.100467285156249,-0.0010652644360316954,0.0,0.0,358.0321355112574,358.75451580938693,38.573226202919734
2026-09-29 19:10:53.314078720,0.2537685546875,-0.36628857421875,10.26565625,-0.0010652644360316954,0.0,-0.0010652644360316954,358.0319625811765,358.7544360372967,38.57249768298316
2026-09-29 19:10:53.328730624,0.2537685546875,-0.31601367187499996,10.236927734375,0.0,-0.0010652644360316954,-0.0021305288720633907,358.03158822423825,358.7537404242849,38.571184685014224
2026-09-29 19:10:53.332993280,0.23222216796874998,-0.3208017578125,10.09328515625,0.0,0.0,-0.0010652644360316954,358.0329372502418,358.7532823321148,38.57015525111704
2026-09-29 19:10:53.344688640,0.21785791015624997,-0.30404345703124996,10.22016943359375,-0.0010652644360316954,0.0,0.0,358.0320021333915,358.7533854798764,38.569717884601125
2026-09-29 19:10:53.360748544,0.25616259765625,-0.32798388671874995,10.2321396484375,0.0010652644360316954,0.0,-0.0010652644360316954,358.0327926780902,358.75360544757353,38.56928277801538
2026-09-29 19:10:53.363470336,0.22025195312499998,-0.33277197265624997,10.18665283203125,0.0,0.0,0.0,358.0330750511192,358.7534148137133,38.56916089935498
2026-09-29 19:10:53.376701184,0.24898046875,-0.36389453125,10.141166015624998,0.0,0.0,-0.0010652644360316954,358.03291585169484,358.7538993120323,38.56842157208267
2026-09-29 19:10:53.376701184,0.25616259765625,-0.36628857421875,10.2417158203125,0.0,0.0,0.0,358.0331361737169,358.7539572148984,38.56799221256345
2026-09-29 19:10:53.396612352,0.25137451171874997,-0.34474218749999996,10.205805175781249,0.0,0.0,0.0,358.0327091462341,358.7538411896974,38.567879165251114
2026-09-29 19:10:53.408292608,0.229828125,-0.38544091796874996,10.1651064453125,0.0021305288720633907,0.011717908796348648,0.0,358.03437368588226,358.75756790304126,38.56701455583669
2026-09-29 19:10:53.423941632,0.23701025390624997,-0.39501708984374995,10.066950683593749,-0.008522115488253563,-0.004261057744126781,-0.0010652644360316954,358.0286030074853,358.7612157968058,38.5664848585854
2026-09-29 19:10:53.423941632,0.24419238281249997,-0.33277197265624997,10.361417968749999,0.014913702104443734,0.0021305288720633907,-0.0010652644360316954,358.03630779505204,358.7596437505162,38.56550126331034
2026-09-29 19:10:53.443062272,0.29446728515625,-0.40459326171875,10.040616210937499,-0.012783173232380343,-0.0010652644360316954,-0.0021305288720633907,358.0287720506301,358.75897137196984,38.564489705509146
2026-09-29 19:10:53.447962880,0.2537685546875,-0.33037792968749996,10.138771972656249,0.006391586616190171,-0.0021305288720633907,-0.0031957933080950856,358.0323270396962,358.7578951519281,38.563194623204225
2026-09-29 19:10:53.455967232,0.22504003906249997,-0.38304687499999995,10.32071923828125,-0.006391586616190171,0.005326322180158476,0.0,358.0299547735135,358.759184137036,38.56271993731647
2026-09-29 19:10:53.471625472,0.296861328125,-0.33995410156249994,10.112437499999999,0.004261057744126781,-0.0010652644360316954,-0.0021305288720633907,358.0302014799849,358.7590477761323,38.561707813840144
2026-09-29 19:10:53.486251520,0.23701025390624997,-0.31601367187499996,10.22495751953125,-0.0021305288720633907,0.0,-0.0010652644360316954,358.0322767802845,358.7588530265147,38.56096649083384
2026-09-29 19:10:53.494508288,0.2537685546875,-0.35192431640625,10.196229003906248,0.0,0.0010652644360316954,-0.0010652644360316954,358.02881957925604,358.7590571959094,38.55992763401095
2026-09-29 19:10:53.508751360,0.26573876953125,-0.31361962890624995,10.11961962890625,0.0021305288720633907,0.0,0.0,358.0320289920591,358.75896090722256,38.55950358139392
2026-09-29 19:10:53.514707968,0.20828173828125,-0.32798388671874995,10.268050292968748,-0.0021305288720633907,0.0021305288720633907,0.0,358.0299895334376,358.7596426811369,38.55935433827407
2026-09-29 19:10:53.523100416,0.21306982421874998,-0.34713623046875,10.172288574218749,0.0010652644360316954,0.0,0.0,358.03096088467976,358.7591555335627,38.5589533344349
2026-09-29 19:10:53.533053952,0.2537685546875,-0.3495302734375,10.2034111328125,-0.005326322180158476,0.0,0.0,358.0289753268511,358.75966411082635,38.55913530317053
2026-09-29 19:10:53.549076736,0.24658642578124998,-0.32558984375,10.19144091796875,0.0031957933080950856,0.0,-0.0010652644360316954,358.0296859656483,358.7593894910215,38.55840746192674
2026-09-29 19:10:53.553470464,0.24898046875,-0.35431835937499995,10.138771972656249,-0.0021305288720633907,0.0,-0.0010652644360316954,358.0292507691057,358.7598884074413,38.55796205596771
2026-09-29 19:10:53.566841344,0.24419238281249997,-0.296861328125,10.251291992187499,0.0,0.0010652644360316954,0.0,358.02751098412057,358.7609728568204,38.557503936495756
2026-09-29 19:10:53.572873728,0.16040087890625,-0.30883154296875,10.050192382812499,0.0,0.0,-0.0010652644360316954,358.02842632557446,358.7605187709266,38.55708713321647
2026-09-29 19:10:53.586878208,0.25616259765625,-0.27052685546875,10.17707666015625,-0.007456851052221867,-0.0031957933080950856,0.0,358.02606037426256,358.7613982982427,38.557289109955605
2026-09-29 19:10:53.593878016,0.23461621093749999,-0.3064375,10.20819921875,0.0021305288720633907,0.0,-0.0010652644360316954,358.0281929186535,358.76115514402295,38.55685528184216
2026-09-29 19:10:53.607087104,0.26573876953125,-0.37586474609375,10.057374511718749,-0.007456851052221867,-0.004261057744126781,0.0,358.0260225721544,358.7608346521632,38.55644975050148
2026-09-29 19:10:53.616090368,0.20588769531249998,-0.3208017578125,10.133983886718749,0.0010652644360316954,0.0,-0.0010652644360316954,358.0274530113746,358.76064197906794,38.556031113100524
2026-09-29 19:10:53.624447488,0.22743408203124998,-0.34234814453124995,10.1746826171875,-0.0010652644360316954,0.0,-0.0021305288720633907,358.02712247657405,358.76101522454906,38.554984022340264
2026-09-29 19:10:53.650014976,0.22025195312499998,-0.30883154296875,10.155530273437499,0.0,-0.0010652644360316954,-0.0010652644360316954,358.0272668885113,358.76026851345273,38.553971322890376
2026-09-29 19:10:53.650428160,0.229828125,-0.33037792968749996,10.155530273437499,-0.0010652644360316954,0.0,-0.0010652644360316954,358.02704368938134,358.7603586168447,38.55323729763655
2026-09-29 19:10:53.675488768,0.229828125,-0.36150048828125,10.196229003906248,0.0010652644360316954,0.0,-0.0010652644360316954,358.02709152784877,358.7609938804287,38.55248951495337
2026-09-29 19:10:53.702827520,0.20828173828125,-0.31840771484374997,10.18665283203125,-0.0010652644360316954,-0.0010652644360316954,-0.0021305288720633907,358.02731909471987,358.7604659568238,38.551481681081206
2026-09-29 19:10:53.702827520,0.22743408203124998,-0.3782587890625,10.141166015624998,0.0,0.0,-0.0021305288720633907,358.02707191528,358.7610391152966,38.55012784844342
2026-09-29 19:10:53.710802688,0.26573876953125,-0.30404345703124996,10.133983886718749,0.0,0.0,-0.0021305288720633907,358.02727352345266,358.76090741964964,38.5487947690395
2026-09-29 19:10:53.736535808,0.24898046875,-0.30404345703124996,10.18186474609375,0.0,-0.0010652644360316954,-0.0010652644360316954,358.02718221534116,358.76051115182656,38.547454604760595
2026-09-29 19:10:53.737536512,0.22743408203124998,-0.35671240234374996,10.256080078124999,0.0,0.0031957933080950856,-0.0010652644360316954,358.0272628088641,358.7612890621096,38.54669571194892
2026-09-29 19:10:53.745390080,0.19870556640624998,-0.37347070312499997,10.141166015624998,-0.004261057744126781,0.0,-0.0021305288720633907,358.02491868973266,358.7615326676468,38.54626240468149
2026-09-29 19:10:53.749818112,0.23701025390624997,-0.29207324218749997,10.18186474609375,0.005326322180158476,0.0,-0.0010652644360316954,358.0272299641979,358.76206689741406,38.54553948573157
2026-09-29 19:10:53.755563520,0.23940429687499998,-0.34234814453124995,10.198623046875,-0.0021305288720633907,-0.0010652644360316954,0.0,358.02689424609684,358.76170663315406,38.545428296521045
2026-09-29 19:10:53.756708608,0.24658642578124998,-0.36868261718749995,10.129195800781249,0.0,-0.0010652644360316954,-0.0010652644360316954,358.0277218681096,358.76146997384376,38.54441018729029
2026-09-29 19:10:53.759960320,0.22504003906249997,-0.32558984375,10.24889794921875,0.0,0.0010652644360316954,0.0,358.0274202230316,358.7615918784805,38.54397895473826
2026-09-29 19:10:53.764657664,0.24898046875,-0.32319580078125,10.1363779296875,0.0,-0.0010652644360316954,0.0,358.02710306865725,358.76087584579216,38.54449423073207
2026-09-29 19:10:53.773574912,0.26573876953125,-0.30883154296875,10.157924316406248,0.0,0.0,0.0,358.0279873903958,358.7608562157263,38.54406759395201
2026-09-29 19:10:53.781693440,0.17955322265624998,-0.3208017578125,10.306354980468749,0.0010652644360316954,0.0021305288720633907,-0.0010652644360316954,358.0273737284378,358.7613526415304,38.543321006115555
2026-09-29 19:10:53.792214784,0.258556640625,-0.33756005859375,10.155530273437499,0.0,-0.0010652644360316954,0.0,358.027770688203,358.7606481093829,38.542923308879864
2026-09-29 19:10:53.800273152,0.181947265625,-0.35671240234374996,10.268050292968748,0.0010652644360316954,0.0010652644360316954,-0.0010652644360316954,358.028473380444,358.7615321759984,38.542469113515935
2026-09-29 19:10:53.804457472,0.26573876953125,-0.3112255859375,10.160318359375,0.0,0.0,0.0,358.02732796673837,358.7612875341651,38.54236882158754
2026-09-29 19:10:53.820597504,0.2537685546875,-0.33037792968749996,10.2321396484375,0.0,0.0,-0.0010652644360316954,358.02815337693187,358.76118640779663,38.54163191905504
2026-09-29 19:10:53.830595584,0.25616259765625,-0.35431835937499995,10.201017089843749,0.0010652644360316954,0.0,-0.0021305288720633907,358.02817663959746,358.7611342627082,38.54090590844467
2026-09-29 19:10:53.844493056,0.28489111328125,-0.36628857421875,10.1746826171875,0.0,0.0010652644360316954,0.0,358.02787769392825,358.76154559366773,38.540464151427315
2026-09-29 19:10:53.850842624,0.22025195312499998,-0.34713623046875,10.1938349609375,0.0,0.0010652644360316954,-0.0010652644360316954,358.0278175320037,358.7623298324114,38.53969779919288
2026-09-29 19:10:53.863189504,0.21306982421874998,-0.3208017578125,10.133983886718749,0.0,0.0010652644360316954,-0.0010652644360316954,358.0284269081644,358.7626722321493,38.53926650881918
2026-09-29 19:10:53.870462208,0.25616259765625,-0.32798388671874995,10.184258789062499,-0.0010652644360316954,0.0,-0.0010652644360316954,358.0280850171077,358.76295769398126,38.53852452537622
2026-09-29 19:10:53.884183552,0.19391748046875,-0.35192431640625,10.212987304687498,0.0,0.0,-0.0010652644360316954,358.0275585871825,358.76344304875784,38.53808095062326
2026-09-29 19:10:53.890410752,0.23461621093749999,-0.34234814453124995,10.160318359375,0.0,0.0,-0.0010652644360316954,358.0268043695558,358.7641764452416,38.53764246302375
2026-09-29 19:10:53.904474880,0.25137451171874997,-0.30883154296875,10.18186474609375,0.0,0.0010652644360316954,-0.0021305288720633907,358.02716327051644,358.76447590679294,38.53660031395916
2026-09-29 19:10:53.914472704,0.22504003906249997,-0.30404345703124996,10.1938349609375,-0.0010652644360316954,0.0,-0.0010652644360316954,358.0271238614266,358.7641396784823,38.53557454938
2026-09-29 19:10:53.917449728,0.22264599609375,-0.3208017578125,10.112437499999999,0.0,0.0,-0.0010652644360316954,358.0268508996207,358.76479477643153,38.53512565925511
2026-09-29 19:10:53.933120256,0.22504003906249997,-0.32319580078125,10.222563476562499,0.0,0.0,-0.0010652644360316954,358.0273136147697,358.76448143859363,38.534712117290255
2026-09-29 19:10:53.933120256,0.22504003906249997,-0.296861328125,10.24889794921875,0.0,0.0010652644360316954,0.0,358.02813011283797,358.7644753071875,38.534287071232264
2026-09-29 19:10:53.948772096,0.229828125,-0.34234814453124995,10.196229003906248,0.0,0.0,-0.0010652644360316954,358.0280981654369,358.76454312884016,38.533555501875334
2026-09-29 19:10:53.964809472,0.24658642578124998,-0.35431835937499995,10.172288574218749,0.0,0.0,0.0,358.0277631182355,358.76448432130326,38.5328305912075
2026-09-29 19:10:53.964809472,0.258556640625,-0.36389453125,10.234533691406249,0.0,0.0,-0.0010652644360316954,358.0277669549401,358.76441645470123,38.532104799499145
2026-09-29 19:10:53.988285184,0.24898046875,-0.33756005859375,10.244109863281249,-0.0010652644360316954,-0.0010652644360316954,-0.0010652644360316954,358.0275352955861,358.7636707228302,38.531388048168616
2026-09-29 19:10:53.994283008,0.23461621093749999,-0.37107666015624996,10.198623046875,-0.0010652644360316954,0.0,-0.0010652644360316954,358.0262367945768,358.76361129048746,38.53066406368696
2026-09-29 19:10:54.017337600,0.2537685546875,-0.36150048828125,10.14834814453125,0.0010652644360316954,0.0021305288720633907,0.0,358.02660405477985,358.7639434177951,38.530543070324484
2026-09-29 19:10:54.017337600,0.22025195312499998,-0.32319580078125,10.16989453125,0.0,0.0010652644360316954,-0.0010652644360316954,358.02663657480394,358.763974474867,38.52981267734946
2026-09-29 19:10:54.035489280,0.229828125,-0.35192431640625,10.198623046875,0.0,0.0,-0.0010652644360316954,358.0261508137722,358.76506555508365,38.529357742838464
2026-09-29 19:10:54.035489280,0.28967919921874996,-0.35431835937499995,10.167500488281249,-0.0010652644360316954,-0.0021305288720633907,-0.0010652644360316954,358.0252653573527,358.7650862101752,38.52863792400521
2026-09-29 19:10:54.048934400,0.22264599609375,-0.30883154296875,10.263262207031248,-0.005326322180158476,-0.004261057744126781,-0.0021305288720633907,358.0246904886545,358.7660185255406,38.52788005120239
2026-09-29 19:10:54.048934400,0.16518896484374998,-0.27770898437499997,10.040616210937499,0.0021305288720633907,-0.0010652644360316954,-0.0010652644360316954,358.02623765518547,358.76546833438,38.526863518292906
2026-09-29 19:10:54.048934400,0.26334472656249996,-0.36389453125,10.212987304687498,-0.006391586616190171,0.0,0.0,358.02427280860354,358.7660666931835,38.527038530447335
2026-09-29 19:10:54.064570368,0.22743408203124998,-0.32558984375,10.16989453125,0.005326322180158476,0.0,-0.0010652644360316954,358.02585576990845,358.76510657930135,38.52603440327467
2026-09-29 19:10:54.087159808,0.2154638671875,-0.3495302734375,10.095679199218749,-0.004261057744126781,0.0,0.0,358.0247066225453,358.7656666982618,38.52589618433925
2026-09-29 19:10:54.093723648,0.22025195312499998,-0.34713623046875,10.057374511718749,0.0031957933080950856,0.0,-0.0010652644360316954,358.02532809869217,358.7658082538311,38.525170242896216
2026-09-29 19:10:54.106836992,0.27531494140624996,-0.35192431640625,10.107649414062498,-0.0031957933080950856,0.0031957933080950856,0.0,358.02510440298596,358.76692545471747,38.524705738369384
2026-09-29 19:10:54.113085184,0.26095068359374995,-0.35431835937499995,10.141166015624998,0.0,0.0,-0.0010652644360316954,358.0237849578735,358.7678392952578,38.52394016439272
2026-09-29 19:10:54.127033600,0.20349365234374997,-0.31840771484374997,10.160318359375,0.0010652644360316954,0.0021305288720633907,-0.0010652644360316954,358.02586205983715,358.76785478462864,38.523510284108035
2026-09-29 19:10:54.133203200,0.2537685546875,-0.36389453125,10.14834814453125,-0.0021305288720633907,0.0,0.0,358.02435015030835,358.7679012349432,38.523089304925044
2026-09-29 19:10:54.146723584,0.26573876953125,-0.33037792968749996,10.212987304687498,0.004261057744126781,0.0010652644360316954,-0.0021305288720633907,358.02669110634395,358.76776074280235,38.521756120069945
2026-09-29 19:10:54.153822464,0.229828125,-0.32798388671874995,10.289596679687499,-0.0031957933080950856,0.0,-0.0010652644360316954,358.0249575388446,358.76840110010096,38.52099678620977
2026-09-29 19:10:54.166642688,0.21067578124999997,-0.30164941406249995,10.162712402343749,0.004261057744126781,0.0010652644360316954,0.0,358.0262541704608,358.7685248468953,38.52025902103395
2026-09-29 19:10:54.166642688,0.23701025390624997,-0.33995410156249994,10.112437499999999,-0.0031957933080950856,0.0010652644360316954,0.0,358.02524385331253,358.7699729905675,38.520401587432886
2026-09-29 19:10:54.182312960,0.23940429687499998,-0.335166015625,10.20819921875,0.0021305288720633907,0.0,-0.0010652644360316954,358.02530656745404,358.7695465283956,38.51969165073394
2026-09-29 19:10:54.182312960,0.25137451171874997,-0.335166015625,10.22016943359375,0.0,0.0010652644360316954,-0.0010652644360316954,358.02699479928384,358.77025994080395,38.51862607147545
2026-09-29 19:10:54.202203904,0.19870556640624998,-0.34234814453124995,10.150742187499999,0.0,0.0,-0.0010652644360316954,358.02582183139157,358.77122814723106,38.517867881964484
2026-09-29 19:10:54.213195264,0.23940429687499998,-0.31840771484374997,10.13158984375,0.0,0.0,-0.0010652644360316954,358.0268033550627,358.77149238919714,38.51713032186358
2026-09-29 19:10:54.222492672,0.24419238281249997,-0.35192431640625,10.275232421875,-0.0010652644360316954,0.0021305288720633907,0.0,358.0251129056817,358.77260377469236,38.51696955481243
2026-09-29 19:10:54.232551168,0.23701025390624997,-0.3495302734375,10.11483154296875,0.0031957933080950856,0.0,0.0,358.0269275784448,358.77185359296556,38.51626534782261
2026-09-29 19:10:54.233285376,0.25137451171874997,-0.38304687499999995,10.201017089843749,-0.005326322180158476,0.0,-0.0021305288720633907,358.02502976111083,358.7716786764281,38.51523630036527
2026-09-29 19:10:54.252337664,0.2154638671875,-0.3782587890625,10.16989453125,0.005326322180158476,0.0,0.0,358.0258227901625,358.77173680237564,38.515119239340244
2026-09-29 19:10:54.266359808,0.30404345703124996,-0.31361962890624995,10.14834814453125,-0.0010652644360316954,0.0010652644360316954,0.0,358.0254064159935,358.7726018684642,38.51468644276808
2026-09-29 19:10:54.272440320,0.21785791015624997,-0.32319580078125,10.201017089843749,0.0,0.0010652644360316954,-0.0021305288720633907,358.0242977365755,358.7726938346405,38.513937422745094
2026-09-29 19:10:54.286689280,0.22025195312499998,-0.33037792968749996,10.184258789062499,0.0,0.0010652644360316954,-0.0010652644360316954,358.02493622908685,358.77297566289417,38.51320062460246
2026-09-29 19:10:54.292686848,0.22264599609375,-0.335166015625,10.22016943359375,0.0,0.0,0.0,358.0244951356425,358.77397047540023,38.512744697331875
2026-09-29 19:10:54.300039168,0.2729208984375,-0.34713623046875,10.201017089843749,0.0010652644360316954,0.0010652644360316954,-0.0010652644360316954,358.025959458787,358.7749422160039,38.512287296418464
2026-09-29 19:10:54.300039168,0.20588769531249998,-0.392623046875,10.212987304687498,0.0,0.0,-0.0010652644360316954,358.0250486490534,358.7749041320661,38.51124616866535
2026-09-29 19:10:54.326362368,0.2681328125,-0.34234814453124995,10.141166015624998,0.0,0.0,0.0,358.0246650427561,358.7753620910868,38.51082318447003
2026-09-29 19:10:54.335442176,0.21306982421874998,-0.32319580078125,10.217775390624999,0.0031957933080950856,0.0021305288720633907,0.0,358.02671834801475,358.77579395761927,38.51038319626314
2026-09-29 19:10:54.341438720,0.23940429687499998,-0.35671240234374996,10.239321777343749,0.0,0.0,-0.0010652644360316954,358.0258959655848,358.7768008011596,38.50992903724159
2026-09-29 19:10:54.352105472,0.27052685546875,-0.29207324218749997,10.14356005859375,0.0031957933080950856,0.0,-0.0021305288720633907,358.02756530161906,358.77566843473176,38.50893354386209
2026-09-29 19:10:54.376392960,0.22264599609375,-0.33277197265624997,10.25847412109375,-0.0010652644360316954,0.0010652644360316954,-0.0010652644360316954,358.02687116022315,358.7765269006212,38.50784968770408
2026-09-29 19:10:54.377394688,0.2154638671875,-0.33277197265624997,10.083708984374999,0.0021305288720633907,0.0,-0.0010652644360316954,358.0275333751581,358.77687740890667,38.507417388504834
2026-09-29 19:10:54.402133248,0.24898046875,-0.36868261718749995,10.205805175781249,0.0,0.0010652644360316954,-0.0010652644360316954,358.02761107619534,358.77705094742834,38.50637467120268
2026-09-29 19:10:54.403139072,0.26334472656249996,-0.36389453125,10.10525537109375,0.0,-0.0010652644360316954,0.0,358.0267537220718,358.7759771509862,38.506295707571034
2026-09-29 19:10:54.428489472,0.23701025390624997,-0.28967919921874996,10.18186474609375,0.0,-0.0010652644360316954,-0.0010652644360316954,358.0283086344629,358.77541911987305,38.5055799113793
2026-09-29 19:10:54.448984064,0.23701025390624997,-0.3495302734375,10.18186474609375,0.0,0.0,-0.0010652644360316954,358.0268148329103,358.7752569511616,38.504857516687764
