Timestamp,ax,ay,az,gx,gy,gz,roll,pitch,yaw
2026-09-29 20:36:15.610682112,-0.01675830078125,-0.29925537109375,10.172288574218749,0.0,-0.0010652644360316954,-0.0010652644360316954,0.07966476168308871,1.0384884594997257,13.533179278374707
2026-09-29 20:36:15.610682112,-0.03112255859375,-0.258556640625,10.198623046875,-0.0010652644360316954,0.0,0.0,0.07525452974040762,1.037074703050619,13.5329411146248
2026-09-29 20:36:15.945252864,-0.023940429687499997,-0.2729208984375,10.189046874999999,0.0,-0.0010652644360316954,-0.0010652644360316954,0.07139033108717305,1.0349254777617254,13.532401485387902
2026-09-29 20:36:15.954979328,-0.05266894531249999,-0.2824970703125,10.2321396484375,-0.0010652644360316954,-0.0010652644360316954,0.0,0.06731409545865924,1.0334704439487385,13.532163556544733
2026-09-29 20:36:15.954979328,-0.026334472656249996,-0.24898046875,10.2034111328125,-0.0010652644360316954,-0.0010652644360316954,-0.0010652644360316954,0.0635049564842849,1.0315588100873792,13.531619646519019
2026-09-29 20:36:15.954979328,-0.059851074218749994,-0.2681328125,10.24889794921875,-0.0010652644360316954,-0.0010652644360316954,0.0,0.060568521653587254,1.0298223645288593,13.531996280499758
2026-09-29 20:36:15.954979328,0.00718212890625,-0.26573876953125,10.189046874999999,-0.0021305288720633907,0.0,0.0,0.05633788685502289,1.0280780524786026,13.532371438345857
2026-09-29 20:36:15.954979328,-0.01915234375,-0.2824970703125,10.212987304687498,-0.0010652644360316954,0.0,0.0,0.05227049780158826,1.0271188779255729,13.5324398697144
2026-09-29 20:36:15.954979328,-0.043092773437499995,-0.28967919921874996,10.268050292968748,0.0,0.0,-0.0010652644360316954,0.047770279605644055,1.0263912405829896,13.531590983042575
2026-09-29 20:36:15.954979328,-0.01915234375,-0.2729208984375,10.246503906249998,0.0,0.0,0.0,0.04445600028448049,1.0252858588666047,13.531356516901841
2026-09-29 20:36:15.954979328,-0.047880859374999994,-0.2729208984375,10.205805175781249,0.0,0.0,0.0,0.04034526483350641,1.0238861052570136,13.53142397742228
2026-09-29 20:36:15.954979328,-0.0143642578125,-0.28010302734375,10.160318359375,0.0,-0.0010652644360316954,0.0,0.03694565486247201,1.0226354300618066,13.531493194972168
2026-09-29 20:36:15.954979328,-0.047880859374999994,-0.24658642578124998,10.198623046875,-0.0010652644360316954,0.0,0.0,0.03328981846964109,1.0209713591249407,13.530953052016306
2026-09-29 20:36:15.954979328,-0.026334472656249996,-0.2824970703125,10.205805175781249,-0.0010652644360316954,0.0,0.0,0.02992981057224066,1.0197821882592586,13.531028700648664
2026-09-29 20:36:15.954979328,-0.028728515625,-0.27770898437499997,10.2417158203125,-0.0010652644360316954,0.0,-0.0010652644360316954,0.025964126767915586,1.01870430759689,13.53018381964455
2026-09-29 20:36:15.970486016,-0.04069873046875,-0.29207324218749997,10.236927734375,0.0,0.0,0.0,0.021617186239252337,1.017639440652451,13.530558051243869
2026-09-29 20:36:15.970486016,-0.01675830078125,-0.28489111328125,10.16989453125,-0.0010652644360316954,0.0,0.0,0.01741927546131313,1.0164932360683212,13.530624304771429
2026-09-29 20:36:15.970486016,-0.011970214843749999,-0.28967919921874996,10.1746826171875,-0.0010652644360316954,0.0,0.0,0.013542157247798935,1.0151337349408267,13.530391154151669
2026-09-29 20:36:15.986120448,-0.011970214843749999,-0.2729208984375,10.19144091796875,-0.0010652644360316954,-0.0010652644360316954,-0.0010652644360316954,0.00973378962216709,1.0133620938392096,13.529848723784168
2026-09-29 20:36:15.986120448,-0.021546386718749998,-0.2824970703125,10.217775390624999,0.0,0.0,0.0,0.0060630267622428565,1.0116582142756487,13.529918928005385
2026-09-29 20:36:16.001745408,-0.0622451171875,-0.29925537109375,10.21059326171875,-0.0010652644360316954,-0.0010652644360316954,0.0,0.002041312976753998,1.0096812857445259,13.529988460605631
2026-09-29 20:36:16.017368064,-0.047880859374999994,-0.27770898437499997,10.229745605468748,-0.0010652644360316954,0.0,0.0,359.99770162212224,1.0085509361895484,13.530363054007204
2026-09-29 20:36:16.017368064,-0.0335166015625,-0.3064375,10.16989453125,-0.0010652644360316954,0.0,0.0,359.99372292072377,1.0069574489523367,13.530433518133448
2026-09-29 20:36:16.017368064,-0.035910644531249994,-0.27770898437499997,10.157924316406248,-0.0010652644360316954,-0.0010652644360316954,0.0,359.9894868963496,1.0053509669943694,13.530504972779825
2026-09-29 20:36:16.017368064,-0.043092773437499995,-0.2537685546875,10.22016943359375,-0.0021305288720633907,-0.0021305288720633907,0.0,359.9856562262109,1.0033390568813845,13.530578435817334
2026-09-29 20:36:16.033000704,-0.06942724609374999,-0.27531494140624996,10.2321396484375,-0.0010652644360316954,0.0,0.0,359.98193937633187,1.0016794935016196,13.530653798678873
2026-09-29 20:36:16.033000704,-0.00718212890625,-0.26573876953125,10.189046874999999,-0.0010652644360316954,0.0,0.0,359.9781053847182,1.0006694877487605,13.530421865720793
2026-09-29 20:36:16.033000704,-0.067033203125,-0.24898046875,10.2034111328125,-0.0010652644360316954,-0.0021305288720633907,-0.0010652644360316954,359.97438738625294,0.9985535454020875,13.529582148038264
2026-09-29 20:36:16.033000704,-0.035910644531249994,-0.26095068359374995,10.20819921875,0.0,0.0,0.0,359.9714827476571,0.9975422396984351,13.529355895799926
2026-09-29 20:36:16.033000704,-0.06942724609374999,-0.23940429687499998,10.16989453125,-0.0021305288720633907,-0.0010652644360316954,0.0,359.9674383320696,0.9960549409303356,13.528820921872159
2026-09-29 20:36:16.048617472,-0.0813974609375,-0.2681328125,10.236927734375,0.0,-0.0010652644360316954,0.0,359.9641602082137,0.9949572833985009,13.529204021842018
2026-09-29 20:36:16.048617472,-0.023940429687499997,-0.2537685546875,10.16989453125,0.0,-0.0010652644360316954,0.0,359.96066662828457,0.9941175812869849,13.528973022554043
2026-09-29 20:36:16.064239616,-0.028728515625,-0.27770898437499997,10.14834814453125,-0.0021305288720633907,-0.0010652644360316954,0.0,359.95658258217964,0.9923063771671059,13.528742815881948
2026-09-29 20:36:16.064239616,-0.04548681640625,-0.27531494140624996,10.201017089843749,-0.0010652644360316954,-0.0010652644360316954,0.0,359.95296287012206,0.9906620206758463,13.528815309523594
2026-09-29 20:36:16.064239616,-0.05745703125,-0.23222216796874998,10.20819921875,-0.0010652644360316954,0.0,0.0,359.94847808261636,0.9889519412587734,13.528278606988447
2026-09-29 20:36:16.064239616,-0.035910644531249994,-0.30404345703124996,10.18665283203125,-0.0010652644360316954,-0.0010652644360316954,0.0,359.94508577929645,0.9873602571766282,13.528360533892325
2026-09-29 20:36:16.064239616,-0.08379150390625,-0.28728515624999995,10.172288574218749,0.0,-0.0010652644360316954,-0.0021305288720633907,359.94212327343007,0.9855615361004829,13.527518733086591
2026-09-29 20:36:16.064239616,-0.023940429687499997,-0.2537685546875,10.22495751953125,0.0,0.0,-0.0010652644360316954,359.9385296576602,0.9843287768105314,13.526676564839981
2026-09-29 20:36:16.064239616,-0.05266894531249999,-0.29207324218749997,10.167500488281249,0.0,0.0,0.0,359.93535157601434,0.982588208675714,13.52644641287094
2026-09-29 20:36:16.064239616,-0.028728515625,-0.3064375,10.16989453125,0.0,-0.0010652644360316954,0.0,359.9319628510879,0.9813020072154424,13.525907733289964
2026-09-29 20:36:16.079865344,-0.035910644531249994,-0.24658642578124998,10.198623046875,0.0,0.0,0.0,359.9284587324345,0.9799824171722129,13.525977414808365
2026-09-29 20:36:16.079865344,-0.076609375,-0.258556640625,10.18186474609375,-0.0010652644360316954,-0.0010652644360316954,0.0,359.9247270720843,0.9782398101128885,13.526359258846318
2026-09-29 20:36:16.079865344,-0.067033203125,-0.31840771484374997,10.179470703124998,-0.0010652644360316954,0.0,0.0,359.9208910220587,0.9772580772940436,13.526439019772617
2026-09-29 20:36:16.079865344,0.0047880859375,-0.28010302734375,10.21538134765625,-0.0010652644360316954,-0.0010652644360316954,0.0,359.9171509326258,0.9753610150466857,13.526210963878565
2026-09-29 20:36:16.079865344,-0.05745703125,-0.26573876953125,10.19144091796875,-0.0010652644360316954,0.0,0.0,359.91342596734006,0.973733622002899,13.52567727666833
2026-09-29 20:36:16.079865344,-0.04548681640625,-0.26334472656249996,10.167500488281249,-0.0021305288720633907,0.0,0.0,359.9089837855944,0.9729830222673777,13.525451158601859
2026-09-29 20:36:16.095490304,-0.04548681640625,-0.2824970703125,10.205805175781249,-0.0010652644360316954,0.0,0.0,359.9053993023604,0.971914779763042,13.525224623210553
2026-09-29 20:36:16.095490304,-0.028728515625,-0.31601367187499996,10.246503906249998,0.0,0.0,0.0,359.9018144726317,0.970387247821068,13.525299136330268
2026-09-29 20:36:16.095490304,-0.035910644531249994,-0.28967919921874996,10.184258789062499,-0.0010652644360316954,-0.0010652644360316954,0.0,359.8979402616757,0.9685797472041285,13.525068781614541
2026-09-29 20:36:16.095490304,-0.0813974609375,-0.2681328125,10.201017089843749,-0.0010652644360316954,0.0,0.0,359.8940596165014,0.9670828507687035,13.524843154582541
2026-09-29 20:36:16.095490304,-0.0335166015625,-0.28010302734375,10.160318359375,-0.0010652644360316954,0.0,0.0,359.89044664965513,0.9659432987209385,13.524311755983858
2026-09-29 20:36:16.095490304,-0.01915234375,-0.2729208984375,10.15313623046875,0.0,0.0,0.0,359.88713714405566,0.96480186731983,13.524084970881615
2026-09-29 20:36:16.095490304,-0.055062988281249996,-0.26334472656249996,10.205805175781249,0.0,-0.0010652644360316954,0.0,359.8837782271149,0.9633197284920063,13.524468296421796
2026-09-29 20:36:16.095490304,-0.04548681640625,-0.30883154296875,10.205805175781249,-0.0010652644360316954,-0.0010652644360316954,-0.0010652644360316954,359.8802782742991,0.9614985664748444,13.52393964793054
2026-09-29 20:36:16.095490304,-0.05027490234375,-0.26573876953125,10.198623046875,-0.0010652644360316954,0.0,-0.0021305288720633907,359.876430693243,0.9601992258594166,13.522793776685583
2026-09-29 20:36:16.095490304,-0.028728515625,-0.2824970703125,10.167500488281249,-0.0010652644360316954,-0.0010652644360316954,-0.0010652644360316954,359.873012188552,0.9588065953614131,13.522260930010814
2026-09-29 20:36:16.095490304,-0.05266894531249999,-0.23461621093749999,10.1746826171875,-0.0021305288720633907,-0.0010652644360316954,0.0,359.86895017428094,0.9572219758235969,13.521727554127608
2026-09-29 20:36:16.095490304,-0.03112255859375,-0.27052685546875,10.22495751953125,-0.0010652644360316954,0.0,-0.0010652644360316954,359.86565876952255,0.9560279785202435,13.520896181910349
2026-09-29 20:36:16.095490304,-0.035910644531249994,-0.258556640625,10.217775390624999,0.0,-0.0010652644360316954,0.0,359.86221356837046,0.9542624991248065,13.520668941465138
2026-09-29 20:36:16.095490304,-0.03112255859375,-0.24898046875,10.22495751953125,-0.0010652644360316954,0.0,0.0,359.8589734207815,0.953506909977975,13.520442930800593
2026-09-29 20:36:16.095490304,-0.01915234375,-0.29925537109375,10.222563476562499,0.0,-0.0010652644360316954,0.0,359.8562796677412,0.95192271252796,13.52083360309616
2026-09-29 20:36:16.095490304,-0.04069873046875,-0.29925537109375,10.22016943359375,-0.0010652644360316954,0.0,0.0,359.85259253742345,0.9504062655472141,13.520911989899798
2026-09-29 20:36:16.095490304,-0.0335166015625,-0.27770898437499997,10.246503906249998,-0.0010652644360316954,-0.0010652644360316954,-0.0010652644360316954,359.8489026691832,0.9487697742081966,13.520381047402468
2026-09-29 20:36:16.102668800,-0.028728515625,-0.24658642578124998,10.20819921875,0.0,0.0,0.0,359.8456950149972,0.9473848845007523,13.520462435301363
2026-09-29 20:36:16.103183104,-0.043092773437499995,-0.27531494140624996,10.201017089843749,0.0,0.0,0.0,359.8423606009513,0.9459680552410054,13.520540965355107
2026-09-29 20:36:16.104080896,-0.026334472656249996,-0.26573876953125,10.198623046875,-0.0010652644360316954,0.0,0.0,359.8388281576954,0.9444111545944877,13.520312073426343
2026-09-29 20:36:16.106224640,-0.023940429687499997,-0.28728515624999995,10.229745605468748,0.0,0.0,-0.0010652644360316954,359.83597928722156,0.9432368540868243,13.520088643359236
2026-09-29 20:36:16.127836672,-0.059851074218749994,-0.27052685546875,10.227351562499999,0.0,0.0,0.0,359.8327657660358,0.9417560565029602,13.519865063728668
2026-09-29 20:36:16.127836672,-0.00239404296875,-0.2729208984375,10.122013671875,-0.0010652644360316954,-0.0010652644360316954,0.0,359.82919905173355,0.9401778335907824,13.519641688340302
2026-09-29 20:36:16.136833536,-0.0813974609375,-0.2729208984375,10.21059326171875,-0.0010652644360316954,-0.0010652644360316954,0.0,359.82565130744933,0.9382798765928226,13.519418658167593
2026-09-29 20:36:16.136833536,-0.067033203125,-0.29446728515625,10.189046874999999,0.0,-0.0010652644360316954,0.0,359.82270043208587,0.9365650195845077,13.51950070358065
2026-09-29 20:36:16.157969408,-0.0622451171875,-0.28489111328125,10.17707666015625,-0.0010652644360316954,0.0,0.0,359.8193170620542,0.9352397653008233,13.51958474589778
2026-09-29 20:36:16.157969408,-0.043092773437499995,-0.29207324218749997,10.22016943359375,-0.0010652644360316954,-0.0010652644360316954,0.0,359.816028415207,0.934035329392271,13.51936037192007
2026-09-29 20:36:16.186086656,-0.00239404296875,-0.28489111328125,10.217775390624999,-0.0010652644360316954,0.0,0.0,359.8127072001344,0.9329234042969309,13.519134454333946
2026-09-29 20:36:16.186086656,-0.026334472656249996,-0.2729208984375,10.172288574218749,-0.0010652644360316954,-0.0010652644360316954,-0.0010652644360316954,359.809214717352,0.9314293518284538,13.518606712269083
2026-09-29 20:36:16.200985600,-0.04069873046875,-0.29207324218749997,10.184258789062499,0.0,0.0,0.0,359.80620361107964,0.9303644146380126,13.518686138384234
2026-09-29 20:36:16.210914304,-0.059851074218749994,-0.29925537109375,10.205805175781249,0.0,0.0,0.0,359.8029522106001,0.9293653276222247,13.519071915842414
2026-09-29 20:36:16.224827648,-0.067033203125,-0.27770898437499997,10.234533691406249,-0.0010652644360316954,-0.0010652644360316954,0.0,359.79974076153604,0.9277351112368503,13.519155292510607
2026-09-29 20:36:16.226695680,-0.04069873046875,-0.296861328125,10.162712402343749,-0.0021305288720633907,0.0,0.0,359.795891256165,0.9266098617675107,13.519542412045254
2026-09-29 20:36:16.245488640,-0.028728515625,-0.28728515624999995,10.145954101562499,-0.0010652644360316954,-0.0010652644360316954,0.0,359.792414703552,0.9252393622019608,13.519625509379937
2026-09-29 20:36:16.253494784,-0.0622451171875,-0.27052685546875,10.22495751953125,-0.0010652644360316954,0.0,0.0,359.78848093279555,0.9241118890022956,13.51970511869237
2026-09-29 20:36:16.261517312,0.00718212890625,-0.2537685546875,10.2321396484375,-0.0010652644360316954,-0.0010652644360316954,0.0,359.784822338089,0.9226162878731465,13.519790328931672
2026-09-29 20:36:16.261517312,-0.0622451171875,-0.29925537109375,10.21059326171875,-0.0010652644360316954,-0.0010652644360316954,-0.0010652644360316954,359.7818899995749,0.9208702534182912,13.519267135358234
2026-09-29 20:36:16.309141504,-0.011970214843749999,-0.27531494140624996,10.22495751953125,-0.0010652644360316954,-0.0010652644360316954,0.0,359.7784950681456,0.919321667882035,13.519348006136292
2026-09-29 20:36:16.356012544,-0.035910644531249994,-0.3208017578125,10.124407714843748,-0.0010652644360316954,-0.0010652644360316954,0.0,359.77495605832075,0.917535759648998,13.51912642620339
2026-09-29 20:36:16.356012544,-0.05027490234375,-0.28010302734375,10.167500488281249,-0.0010652644360316954,-0.0010652644360316954,0.0,359.77124297144906,0.9159706151835816,13.519206139635862
2026-09-29 20:36:16.371636224,-0.0335166015625,-0.24179833984375,10.2800205078125,-0.0021305288720633907,0.0,0.0,359.76764618835415,0.9150285840633785,13.518676286660922
2026-09-29 20:36:16.373373440,-0.035910644531249994,-0.2729208984375,10.2321396484375,-0.0010652644360316954,-0.0010652644360316954,-0.0010652644360316954,359.7645538088465,0.9132308804157764,13.518462183097967
2026-09-29 20:36:16.391569408,-0.01675830078125,-0.26573876953125,10.18665283203125,-0.0010652644360316954,0.0,0.0,359.76117019785124,0.9118117327199461,13.517937054708328
2026-09-29 20:36:16.391569408,-0.0335166015625,-0.28967919921874996,10.17707666015625,0.0,0.0,0.0,359.7584349237249,0.9106226116292097,13.517716484816589
2026-09-29 20:36:16.391569408,-0.021546386718749998,-0.23461621093749999,10.16989453125,-0.0021305288720633907,0.0,0.0,359.7546529511476,0.9094808575197882,13.518104246925136
2026-09-29 20:36:16.420603648,-0.028728515625,-0.27052685546875,10.162712402343749,-0.0010652644360316954,-0.0010652644360316954,0.0,359.7511013477817,0.9079422988300965,13.517582875029653
2026-09-29 20:36:16.423653888,-0.026334472656249996,-0.2681328125,10.1938349609375,0.0,-0.0010652644360316954,0.0,359.74835632111586,0.9064792916863034,13.517363567222773
2026-09-29 20:36:16.430809088,-0.04548681640625,-0.2681328125,10.22016943359375,-0.0010652644360316954,0.0,0.0,359.7454075140621,0.9050867550531163,13.517145906314134
2026-09-29 20:36:16.432837376,-0.05266894531249999,-0.28967919921874996,10.14834814453125,-0.0010652644360316954,0.0,0.0,359.7422123617893,0.9033413356375891,13.516925738596047
2026-09-29 20:36:16.466475008,-0.04069873046875,-0.23222216796874998,10.196229003906248,-0.0010652644360316954,-0.0010652644360316954,0.0,359.7387494000922,0.9019862960932256,13.517011460726856
2026-09-29 20:36:16.466475008,-0.055062988281249996,-0.28489111328125,10.18665283203125,0.0,0.0,0.0,359.73629648115144,0.9014118247789288,13.51679413137909
2026-09-29 20:36:16.466475008,-0.00718212890625,-0.2681328125,10.244109863281249,0.0,0.0,0.0,359.7332914138123,0.9003392880952092,13.516569584072267
2026-09-29 20:36:16.482100736,-0.05745703125,-0.25616259765625,10.184258789062499,-0.0010652644360316954,-0.0010652644360316954,0.0,359.73008080049175,0.8987595722088487,13.516352758460812
2026-09-29 20:36:16.482100736,-0.009576171875,-0.27052685546875,10.172288574218749,0.0,-0.0010652644360316954,0.0,359.72708817876196,0.898059235197131,13.516133288726225
2026-09-29 20:36:16.482100736,-0.059851074218749994,-0.29207324218749997,10.18665283203125,-0.0010652644360316954,0.0,0.0,359.72355691606725,0.8967946647628546,13.515914936526476
2026-09-29 20:36:16.482100736,0.0,-0.28010302734375,10.217775390624999,0.0,0.0,0.0,359.7206025320185,0.8953494996967514,13.515692692724855
2026-09-29 20:36:16.497725952,-0.021546386718749998,-0.27052685546875,10.198623046875,0.0,-0.0010652644360316954,0.0,359.7080075484862,0.8888494471200342,13.514520957215243
2026-09-29 20:36:16.513349888,-0.04069873046875,-0.29925537109375,10.2417158203125,-0.0010652644360316954,-0.0021305288720633907,0.0,359.7050183644582,0.8868574750334606,13.514306484508962
2026-09-29 20:36:16.513349888,-0.009576171875,-0.27770898437499997,10.24889794921875,-0.0010652644360316954,-0.0010652644360316954,0.0,359.70174797104687,0.8852296095729605,13.514396158573112
2026-09-29 20:36:16.528973056,-0.0143642578125,-0.27770898437499997,10.13158984375,-0.0010652644360316954,-0.0010652644360316954,0.0,359.69861092115445,0.883837638733362,13.514786784705985
2026-09-29 20:36:16.528973056,-0.00718212890625,-0.26095068359374995,10.1938349609375,-0.0010652644360316954,-0.0010652644360316954,0.0,359.69526831903306,0.8819251478695527,13.514570231474838
2026-09-29 20:36:16.544598784,0.0,-0.25616259765625,10.14834814453125,0.0,-0.0010652644360316954,0.0,359.6923032724889,0.8800570033121248,13.514354986050252
2026-09-29 20:36:16.544598784,-0.05266894531249999,-0.2729208984375,10.21538134765625,-0.0021305288720633907,0.0,-0.0010652644360316954,359.6896683356364,0.8786589138491209,13.5138381399838
2026-09-29 20:36:16.575878656,-0.009576171875,-0.26573876953125,10.251291992187499,0.0,-0.0010652644360316954,-0.0010652644360316954,359.6866802339745,0.876775137783522,13.51301424307477
2026-09-29 20:36:16.575878656,-0.035910644531249994,-0.28489111328125,10.22495751953125,-0.0010652644360316954,0.0,0.0,359.68309662673437,0.8759208076082322,13.512794090611361
2026-09-29 20:36:16.592699648,-0.055062988281249996,-0.25616259765625,10.184258789062499,-0.0010652644360316954,-0.0010652644360316954,-0.0010652644360316954,359.6798340534409,0.874654170195905,13.512272446937484
2026-09-29 20:36:16.597259520,-0.05266894531249999,-0.28489111328125,10.1938349609375,-0.0010652644360316954,-0.0010652644360316954,0.0,359.676860010913,0.8732600114046315,13.512062100504272
2026-09-29 20:36:16.606786816,-0.026334472656249996,-0.2824970703125,10.14834814453125,0.0,0.0,0.0,359.674122312552,0.8724157464867427,13.51214782523224
2026-09-29 20:36:16.632618496,-0.043092773437499995,-0.2824970703125,10.19144091796875,0.0,0.0,-0.0010652644360316954,359.6714505830483,0.8710971796946002,13.511931189313506
2026-09-29 20:36:16.636833792,-0.0622451171875,-0.29446728515625,10.263262207031248,-0.0010652644360316954,-0.0010652644360316954,0.0,359.6680996135424,0.8699004312094714,13.51201876162349
2026-09-29 20:36:16.678547456,-0.0335166015625,-0.24898046875,10.189046874999999,0.0,-0.0010652644360316954,0.0,359.66512460657015,0.8682468084711892,13.51180581479598
2026-09-29 20:36:16.686821632,-0.01675830078125,-0.25616259765625,10.227351562499999,-0.0010652644360316954,-0.0010652644360316954,-0.0010652644360316954,359.6620557987696,0.8670093566119567,13.511287502266468
2026-09-29 20:36:16.706931712,-0.00239404296875,-0.28489111328125,10.22495751953125,0.0,0.0,-0.0010652644360316954,359.6589485306838,0.8659339805648053,13.510461817849412
2026-09-29 20:36:16.719480576,-0.0622451171875,-0.27770898437499997,10.246503906249998,-0.0010652644360316954,-0.0010652644360316954,-0.0010652644360316954,359.65598684018556,0.8641542646383069,13.50994235086733
2026-09-29 20:36:16.719480576,-0.023940429687499997,-0.296861328125,10.141166015624998,0.0,-0.0010652644360316954,0.0,359.6531135533019,0.8628337194591873,13.50972935025115
2026-09-29 20:36:16.741047296,-0.0383046875,-0.25616259765625,10.239321777343749,0.0,0.0,0.0,359.65081865698494,0.8618151007897425,13.50981752040627
2026-09-29 20:36:16.741047296,-0.04548681640625,-0.27770898437499997,10.19144091796875,-0.0010652644360316954,-0.0010652644360316954,0.0,359.6478603234125,0.8605906571599058,13.510216532507936
2026-09-29 20:36:16.741047296,-0.0383046875,-0.30404345703124996,10.198623046875,0.0,0.0,0.0,359.6451473558824,0.8597318250405258,13.510002486111661
2026-09-29 20:36:16.741047296,-0.05266894531249999,-0.3064375,10.179470703124998,-0.0010652644360316954,-0.0010652644360316954,0.0,359.6417834998655,0.8581564567696642,13.510092175007072
2026-09-29 20:36:16.755792128,-0.05266894531249999,-0.2824970703125,10.138771972656249,-0.0010652644360316954,0.0,0.0,359.6383271631339,0.8570512025905008,13.509871577990687
2026-09-29 20:36:16.763493376,-0.028728515625,-0.2824970703125,10.21059326171875,0.0,-0.0010652644360316954,0.0,359.63545541636876,0.8553642341208444,13.509353917153602
2026-09-29 20:36:16.763493376,-0.06463916015625,-0.3064375,10.189046874999999,-0.0021305288720633907,0.0,0.0,359.632086898982,0.8540207794233733,13.508836116834097
2026-09-29 20:36:16.777008128,-0.01915234375,-0.27531494140624996,10.19144091796875,0.0,-0.0010652644360316954,-0.0010652644360316954,359.6290179055015,0.8526655563747745,13.508315717365354
2026-09-29 20:36:16.777008128,-0.05745703125,-0.2729208984375,10.2034111328125,0.0,0.0,0.0,359.62651627958877,0.851897679879953,13.508100425333744
2026-09-29 20:36:16.777008128,-0.011970214843749999,-0.28967919921874996,10.246503906249998,0.0,0.0,0.0,359.62358267538804,0.8514880984977004,13.507881270794385
2026-09-29 20:36:16.777008128,-0.0143642578125,-0.26095068359374995,10.21538134765625,0.0,0.0,0.0,359.62056028545,0.8503030053439515,13.507359688353086
2026-09-29 20:36:16.802809600,0.01675830078125,-0.30164941406249995,10.217775390624999,-0.0010652644360316954,0.0,0.0,359.61741121721656,0.8493432090345512,13.507143794029266
2026-09-29 20:36:16.819582976,-0.055062988281249996,-0.31361962890624995,10.227351562499999,0.0,-0.0010652644360316954,-0.0010652644360316954,359.6142376887524,0.8477500533800335,13.506315045962413
2026-09-29 20:36:16.819582976,-0.05266894531249999,-0.27052685546875,10.205805175781249,0.0,-0.0010652644360316954,0.0,359.61170106044545,0.8464436525578526,13.506103481498446
2026-09-29 20:36:16.819582976,-0.04548681640625,-0.26334472656249996,10.2321396484375,-0.0021305288720633907,0.0,0.0,359.60844204890884,0.8458086354794276,13.506195819522613
2026-09-29 20:36:16.836057856,-0.035910644531249994,-0.27770898437499997,10.236927734375,-0.0021305288720633907,-0.0010652644360316954,0.0,359.60507367982785,0.8441855269457619,13.506595969811556
2026-09-29 20:36:16.836057856,-0.01675830078125,-0.28010302734375,10.21538134765625,0.0,0.0,0.0,359.60214355682933,0.8432857255352095,13.506378995430916
2026-09-29 20:36:16.881921024,-0.0143642578125,-0.28489111328125,10.179470703124998,-0.0010652644360316954,0.0,0.0,359.5988901163347,0.8422614322665234,13.506466992119671
2026-09-29 20:36:16.881921024,-0.05027490234375,-0.2681328125,10.16989453125,-0.0021305288720633907,0.0,0.0,359.5958212063991,0.8413084253564278,13.50625253895827
2026-09-29 20:36:16.888395520,-0.05027490234375,-0.28010302734375,10.179470703124998,-0.0010652644360316954,-0.0010652644360316954,-0.0010652644360316954,359.5926972957688,0.8404164144284404,13.505431678853482
2026-09-29 20:36:16.888395520,-0.021546386718749998,-0.30404345703124996,10.239321777343749,-0.0010652644360316954,-0.0010652644360316954,-0.0010652644360316954,359.5895365067482,0.8391904573574817,13.504307176615464
2026-09-29 20:36:16.902992384,-0.026334472656249996,-0.24419238281249997,10.22495751953125,-0.0010652644360316954,0.0,0.0,359.5856581806087,0.8384135667091877,13.504392820715431
2026-09-29 20:36:16.902992384,0.009576171875,-0.2681328125,10.2034111328125,-0.0021305288720633907,0.0,0.0,359.58252186018547,0.8373250324885895,13.503876865503697
2026-09-29 20:36:16.920648960,-0.021546386718749998,-0.26573876953125,10.157924316406248,0.0,-0.0010652644360316954,0.0,359.5797259443274,0.83558346215056,13.50366650697188
2026-09-29 20:36:16.945497600,-0.04069873046875,-0.28967919921874996,10.1938349609375,0.0,0.0,0.0,359.5776655550644,0.8346360206347341,13.503758768415695
2026-09-29 20:36:16.945497600,-0.03112255859375,-0.27052685546875,10.20819921875,-0.0010652644360316954,-0.0010652644360316954,0.0,359.5746146440014,0.8335729982340302,13.503547024427515
2026-09-29 20:36:16.952818432,-0.0383046875,-0.29207324218749997,10.167500488281249,-0.0010652644360316954,-0.0010652644360316954,0.0,359.5715442183564,0.832112495223387,13.503337346710513
2026-09-29 20:36:16.961357312,-0.047880859374999994,-0.29207324218749997,10.19144091796875,-0.0010652644360316954,0.0,0.0,359.568442686145,0.830966471680366,13.503430118817906
2026-09-29 20:36:16.969384704,-0.021546386718749998,-0.23222216796874998,10.1746826171875,0.0,0.0,0.0,359.5661666295342,0.8297916743422519,13.503216447681483
2026-09-29 20:36:16.969384704,-0.035910644531249994,-0.29207324218749997,10.227351562499999,-0.0010652644360316954,0.0,0.0,359.5634009580888,0.8289146290807216,13.503006699412701
2026-09-29 20:36:16.986144256,-0.0622451171875,-0.27052685546875,10.205805175781249,-0.0010652644360316954,0.0,0.0,359.56057930939215,0.828164319220202,13.502789476096181
2026-09-29 20:36:17.019565824,-0.035910644531249994,-0.23461621093749999,10.21059326171875,-0.0010652644360316954,0.0,0.0,359.55736355645286,0.827418132107128,13.502577678099364
2026-09-29 20:36:17.054941696,-0.0335166015625,-0.24179833984375,10.2034111328125,-0.0021305288720633907,-0.0010652644360316954,0.0,359.5542410866522,0.8259570449168142,13.502066858026785
2026-09-29 20:36:17.054941696,-0.00718212890625,-0.30883154296875,10.1651064453125,-0.0010652644360316954,0.0,0.0,359.55197112888465,0.8248575457818768,13.502165166998672
2026-09-29 20:36:17.069433856,-0.028728515625,-0.26095068359374995,10.246503906249998,-0.0010652644360316954,0.0,0.0,359.5490756005262,0.8237914983955055,13.501949277206082
2026-09-29 20:36:17.069433856,-0.011970214843749999,-0.28010302734375,10.17707666015625,0.0,0.0,0.0,359.54639579424315,0.8229053269855214,13.501431377848409
2026-09-29 20:36:17.080440320,-0.043092773437499995,-0.258556640625,10.20819921875,0.0,0.0,0.0,359.54393819487007,0.8216653383900638,13.501219838045124
2026-09-29 20:36:17.086451712,-0.05745703125,-0.30164941406249995,10.167500488281249,-0.0010652644360316954,0.0,0.0,359.5412845873579,0.8207214225928503,13.501009979792101
2026-09-29 20:36:17.087480832,-0.00718212890625,-0.30404345703124996,10.160318359375,-0.0010652644360316954,-0.0010652644360316954,0.0,359.53821468362537,0.8193609970437069,13.501106086087749
2026-09-29 20:36:17.096487424,-0.011970214843749999,-0.27531494140624996,10.222563476562499,0.0,0.0,0.0,359.53484890152043,0.8187522610220375,13.501495798635773
2026-09-29 20:36:17.096487424,-0.06942724609374999,-0.29207324218749997,10.189046874999999,0.0,-0.0010652644360316954,0.0,359.53240547721026,0.8174295435769935,13.501589769728728
2026-09-29 20:36:17.096487424,-0.059851074218749994,-0.2537685546875,10.196229003906248,-0.0010652644360316954,0.0,0.0,359.5294604283544,0.8168145986330274,13.501685360323906
2026-09-29 20:36:17.112125440,-0.0383046875,-0.2537685546875,10.251291992187499,-0.0010652644360316954,0.0,-0.0010652644360316954,359.5266828416827,0.8159605783400725,13.501173095106445
2026-09-29 20:36:17.129944064,-0.011970214843749999,-0.23701025390624997,10.246503906249998,-0.0010652644360316954,0.0,-0.0010652644360316954,359.52467810416084,0.8149948120361371,13.500355673735749
2026-09-29 20:36:17.130952704,-0.0383046875,-0.27052685546875,10.157924316406248,0.0,-0.0010652644360316954,0.0,359.52269138683016,0.8132951103004118,13.500458867343713
2026-09-29 20:36:17.136118784,-0.03112255859375,-0.2824970703125,10.32550732421875,0.0,0.0,0.0,359.5200789723822,0.8123168103170308,13.500247257711155
2026-09-29 20:36:17.136118784,-0.035910644531249994,-0.296861328125,10.22495751953125,-0.0010652644360316954,0.0,0.0,359.5171608107186,0.8114202659586274,13.500035659963572
2026-09-29 20:36:17.153094144,-0.047880859374999994,-0.26095068359374995,10.189046874999999,-0.0010652644360316954,0.0,0.0,359.51401812760713,0.8109979817729849,13.499818347989072
2026-09-29 20:36:17.153094144,-0.035910644531249994,-0.2824970703125,10.179470703124998,0.0,0.0,0.0,359.51102575689305,0.8104862197257077,13.499603120682552
2026-09-29 20:36:17.169473280,-0.01675830078125,-0.28728515624999995,10.172288574218749,-0.0010652644360316954,-0.0010652644360316954,0.0,359.5078143648677,0.8091531080731267,13.499392658472667
2026-09-29 20:36:17.186086400,-0.00239404296875,-0.2824970703125,10.150742187499999,-0.0010652644360316954,0.0,0.0,359.5048612223365,0.8080879569637289,13.499180677282311
2026-09-29 20:36:17.186086400,-0.043092773437499995,-0.2824970703125,10.212987304687498,0.0,0.0,0.0,359.50290656912597,0.806603499589498,13.498975240172191
2026-09-29 20:36:17.246906880,-0.043092773437499995,-0.30404345703124996,10.14834814453125,-0.0010652644360316954,0.0,0.0,359.5003372453769,0.8057597206044891,13.499069575194726
2026-09-29 20:36:17.246906880,-0.0383046875,-0.28967919921874996,10.189046874999999,0.0,0.0,0.0,359.49756277989735,0.8046109428661827,13.499163693867096
2026-09-29 20:36:17.246906880,-0.0335166015625,-0.2729208984375,10.18665283203125,0.0,0.0,0.0,359.4947024101742,0.8038188241084588,13.499258307676234
2026-09-29 20:36:17.267184896,-0.028728515625,-0.24179833984375,10.217775390624999,-0.0021305288720633907,0.0,-0.0010652644360316954,359.4915788373214,0.8031586803607325,13.498435457894406
2026-09-29 20:36:17.267184896,-0.035910644531249994,-0.30883154296875,10.2321396484375,0.0,0.0,0.0,359.48918580916495,0.8021249004516946,13.497924810325268
2026-09-29 20:36:17.273773568,-0.067033203125,-0.29207324218749997,10.260868164062499,-0.0010652644360316954,0.0,0.0,359.48622809122674,0.8013916777684998,13.498323196750666
2026-09-29 20:36:17.273773568,-0.0383046875,-0.29446728515625,10.150742187499999,-0.0021305288720633907,-0.0010652644360316954,0.0,359.48298539000115,0.8004514451504499,13.49780930480142
2026-09-29 20:36:17.273773568,-0.06463916015625,-0.26334472656249996,10.21059326171875,0.0,-0.0010652644360316954,0.0,359.48045441720063,0.7993041348973401,13.497902761203562
2026-09-29 20:36:17.286258432,-0.04548681640625,-0.26334472656249996,10.227351562499999,-0.0010652644360316954,0.0,0.0,359.47783659806686,0.7985135078613392,13.498000848730406
2026-09-29 20:36:17.304037120,-0.021546386718749998,-0.25616259765625,10.196229003906248,-0.0010652644360316954,0.0,0.0,359.47537199244334,0.797959764184099,13.498096804036908
2026-09-29 20:36:17.304037120,0.00239404296875,-0.2824970703125,10.18665283203125,0.0,-0.0010652644360316954,0.0,359.4726647166338,0.79685948970967,13.497583422828916
2026-09-29 20:36:17.319466240,-0.0335166015625,-0.31361962890624995,10.24889794921875,0.0,0.0,0.0,359.4704464770528,0.796592612267049,13.49767285506272
2026-09-29 20:36:17.319466240,-0.026334472656249996,-0.30164941406249995,10.212987304687498,0.0,-0.0010652644360316954,0.0,359.46801115771734,0.7954852582317276,13.497767780290982
2026-09-29 20:36:17.336198144,-0.00718212890625,-0.29446728515625,10.198623046875,-0.0010652644360316954,0.0,-0.0010652644360316954,359.4657561015793,0.7944692904184562,13.497252156421625
2026-09-29 20:36:17.352813312,-0.03112255859375,-0.27052685546875,10.184258789062499,-0.0021305288720633907,-0.0010652644360316954,-0.0010652644360316954,359.46234048992426,0.7930291369147753,13.496736096308545
2026-09-29 20:36:17.352813312,-0.059851074218749994,-0.2824970703125,10.222563476562499,0.0,-0.0021305288720633907,0.0,359.45994006219433,0.7913594275573599,13.496536450721381
2026-09-29 20:36:17.369486592,-0.00718212890625,-0.27052685546875,10.21538134765625,0.0,-0.0010652644360316954,-0.0010652644360316954,359.4575024952508,0.7900054539323991,13.49602847781249
2026-09-29 20:36:17.396654080,-0.05266894531249999,-0.2729208984375,10.184258789062499,0.0,-0.0010652644360316954,0.0,359.4554466294911,0.7886249323508524,13.496128910684737
2026-09-29 20:36:17.397364480,-0.009576171875,-0.258556640625,10.184258789062499,0.0,-0.0021305288720633907,0.0,359.4531166321112,0.7868481992327014,13.496235566094407
2026-09-29 20:36:17.420264960,-0.047880859374999994,-0.27052685546875,10.2034111328125,-0.0010652644360316954,0.0,0.0,359.4507643347823,0.7857256470340408,13.4963333348306
2026-09-29 20:36:17.441433088,-0.0143642578125,-0.28010302734375,10.17707666015625,-0.0010652644360316954,0.0,0.0,359.4480563996116,0.7849835049752887,13.49612529350105
2026-09-29 20:36:17.441433088,-0.028728515625,-0.24898046875,10.21059326171875,0.0,-0.0010652644360316954,-0.0021305288720633907,359.4452377280735,0.7840944200681141,13.495305465261564
2026-09-29 20:36:17.453286912,-0.026334472656249996,-0.27052685546875,10.17707666015625,0.0,0.0,0.0,359.442933203744,0.783036165815661,13.494796644439432
2026-09-29 20:36:17.455367680,-0.0335166015625,-0.2537685546875,10.18665283203125,0.0,0.0,0.0,359.4413228561498,0.7821001157672015,13.494281830452477
2026-09-29 20:36:17.456389120,-0.023940429687499997,-0.296861328125,10.179470703124998,0.0,-0.0010652644360316954,0.0,359.43916262289827,0.7808498154857823,13.494078925371625
2026-09-29 20:36:17.462686720,-0.0335166015625,-0.2681328125,10.22016943359375,0.0,-0.0010652644360316954,-0.0010652644360316954,359.43706606562415,0.7791659623306052,13.493574866963774
2026-09-29 20:36:17.468962816,-0.055062988281249996,-0.2537685546875,10.244109863281249,-0.0010652644360316954,-0.0021305288720633907,0.0,359.43464137035426,0.7780277901410088,13.493677867337608
2026-09-29 20:36:17.488049920,-0.035910644531249994,-0.28489111328125,10.162712402343749,-0.0010652644360316954,0.0,0.0,359.4322626343273,0.7770408227805109,13.493473325583533
2026-09-29 20:36:17.488049920,-0.021546386718749998,-0.26573876953125,10.17707666015625,0.0,0.0,0.0,359.43002967008124,0.7766558140519093,13.49356276921733
2026-09-29 20:36:17.500055040,-0.047880859374999994,-0.2729208984375,10.201017089843749,0.0,0.0,0.0,359.427526547926,0.7755109009869373,13.493051494480488
2026-09-29 20:36:17.515686400,-0.0335166015625,-0.26334472656249996,10.19144091796875,-0.0010652644360316954,0.0,0.0,359.4251294434676,0.774802152233706,13.492843652241756
2026-09-29 20:36:17.531311104,-0.035910644531249994,-0.28967919921874996,10.22495751953125,-0.0010652644360316954,-0.0010652644360316954,0.0,359.4222142642614,0.7734791900327244,13.49325052201347
2026-09-29 20:36:17.531311104,-0.026334472656249996,-0.25137451171874997,10.201017089843749,-0.0010652644360316954,0.0,0.0,359.41929420454403,0.7726782271622158,13.492734744684677
2026-09-29 20:36:17.546935552,-0.03112255859375,-0.258556640625,10.17707666015625,0.0,-0.0010652644360316954,0.0,359.4170455319256,0.7711764979772956,13.492836240926886
2026-09-29 20:36:17.546935552,-0.01915234375,-0.27531494140624996,10.198623046875,-0.0010652644360316954,-0.0010652644360316954,-0.0010652644360316954,359.41449095490015,0.7702230100124847,13.492328512859128
2026-09-29 20:36:17.578597120,-0.04548681640625,-0.28010302734375,10.21538134765625,-0.0010652644360316954,-0.0021305288720633907,-0.0010652644360316954,359.4120779586418,0.7685243468691587,13.491824830501171
2026-09-29 20:36:17.578597120,-0.067033203125,-0.26573876953125,10.157924316406248,-0.0010652644360316954,0.0,-0.0010652644360316954,359.4092938959171,0.7674898498163589,13.491009023749472
2026-09-29 20:36:17.594220800,-0.021546386718749998,-0.28967919921874996,10.21059326171875,-0.0010652644360316954,-0.0010652644360316954,0.0,359.40650186046696,0.7663855567898773,13.49050143939893
2026-09-29 20:36:17.594220800,-0.059851074218749994,-0.29207324218749997,10.138771972656249,-0.0010652644360316954,0.0,0.0,359.4038049079651,0.7655534674380685,13.49059899327912
2026-09-29 20:36:17.594220800,-0.076609375,-0.27052685546875,10.18186474609375,-0.0010652644360316954,-0.0010652644360316954,0.0,359.40106740234813,0.7642926863150816,13.490702439134703
2026-09-29 20:36:17.594220800,-0.0813974609375,-0.296861328125,10.236927734375,-0.0021305288720633907,-0.0010652644360316954,0.0,359.39832009507893,0.7638704849144536,13.491413773637145
2026-09-29 20:36:17.609846016,-0.01675830078125,-0.29207324218749997,10.227351562499999,0.0,0.0,0.0,359.39501814637583,0.7639339908855636,13.491195784747863
2026-09-29 20:36:17.630907392,-0.0335166015625,-0.27770898437499997,10.234533691406249,-0.0010652644360316954,-0.0010652644360316954,0.0,359.3926295054073,0.762655291779414,13.49160184627975
2026-09-29 20:36:17.647348224,-0.059851074218749994,-0.24179833984375,10.196229003906248,-0.0010652644360316954,0.0,0.0,359.3899720398418,0.762525748747846,13.491388349658434
2026-09-29 20:36:17.648353536,-0.023940429687499997,-0.2729208984375,10.18665283203125,-0.0021305288720633907,0.0,0.0,359.3873187706437,0.7618084902289199,13.491490642402818
2026-09-29 20:36:17.657338880,-0.05027490234375,-0.27052685546875,10.217775390624999,-0.0010652644360316954,0.0,0.0,359.38470870759363,0.7610959912820255,13.491589432509333
2026-09-29 20:36:17.657338880,-0.028728515625,-0.28728515624999995,10.205805175781249,-0.0021305288720633907,0.0,0.0,359.38139168642414,0.7598232213004373,13.491693603016774
2026-09-29 20:36:17.672971264,-0.0813974609375,-0.3064375,10.22016943359375,-0.0010652644360316954,-0.0021305288720633907,0.0,359.37876898836583,0.7586391210680158,13.491493697237326
2026-09-29 20:36:17.689044224,-0.026334472656249996,-0.30404345703124996,10.189046874999999,-0.0010652644360316954,-0.0010652644360316954,0.0,359.37546477647123,0.7579267505266346,13.491590760460527
2026-09-29 20:36:17.689044224,-0.01915234375,-0.28489111328125,10.201017089843749,-0.0010652644360316954,-0.0010652644360316954,0.0,359.37261117828444,0.7571498011305509,13.49138124722829
2026-09-29 20:36:17.704633344,-0.023940429687499997,-0.2681328125,10.2034111328125,-0.0010652644360316954,-0.0010652644360316954,0.0,359.370379941772,0.7556316578850292,13.491487843790072
2026-09-29 20:36:17.720256000,-0.028728515625,-0.28010302734375,10.222563476562499,-0.0021305288720633907,-0.0010652644360316954,0.0,359.3674582284769,0.75411451143433,13.491288204314326
2026-09-29 20:36:17.720256000,-0.04069873046875,-0.28967919921874996,10.196229003906248,-0.0010652644360316954,0.0,-0.0010652644360316954,359.3647418226558,0.7534351320093361,13.491080604179981
2026-09-29 20:36:17.767129088,-0.05745703125,-0.28489111328125,10.229745605468748,0.0,0.0,0.0,359.36235086361,0.7528562847429661,13.491175084017772
2026-09-29 20:36:17.767129088,-0.07182128906249999,-0.3064375,10.217775390624999,-0.0010652644360316954,0.0,0.0,359.35994937663054,0.7520197217971554,13.49097103608881
2026-09-29 20:36:17.767129088,-0.047880859374999994,-0.28489111328125,10.189046874999999,0.0,-0.0010652644360316954,-0.0010652644360316954,359.35744084439386,0.7511310971386617,13.490460469759618
2026-09-29 20:36:17.782757888,-0.011970214843749999,-0.30164941406249995,10.196229003906248,-0.0010652644360316954,0.0,0.0,359.3547553249309,0.7502557033130823,13.490561963878276
2026-09-29 20:36:17.798589184,-0.047880859374999994,-0.2824970703125,10.1746826171875,-0.0010652644360316954,-0.0010652644360316954,0.0,359.35195769176346,0.7488289213678022,13.490360212263823
2026-09-29 20:36:17.814213120,-0.05745703125,-0.2729208984375,10.205805175781249,-0.0010652644360316954,-0.0010652644360316954,0.0,359.3495892594496,0.747762733939983,13.490156807691866
2026-09-29 20:36:17.892340480,-0.035910644531249994,-0.2537685546875,10.1938349609375,-0.0010652644360316954,-0.0010652644360316954,0.0,359.3470661996427,0.7462345015448011,13.489962260055709
2026-09-29 20:36:17.907959040,-0.04548681640625,-0.26573876953125,10.1746826171875,-0.0010652644360316954,-0.0010652644360316954,0.0,359.3445227859883,0.7449069262581761,13.489763975308191
2026-09-29 20:36:17.923582720,-0.043092773437499995,-0.26573876953125,10.19144091796875,-0.0010652644360316954,-0.0010652644360316954,-0.0010652644360316954,359.34208532766434,0.7432749030484004,13.489265581023833
2026-09-29 20:36:17.939208448,-0.01915234375,-0.25137451171874997,10.2034111328125,0.0,-0.0010652644360316954,0.0,359.3401611123463,0.7418954997760462,13.489372743801944
2026-09-29 20:36:17.939208448,-0.009576171875,-0.30404345703124996,10.198623046875,0.0,0.0,-0.0010652644360316954,359.3383972821153,0.7407181677303933,13.488868252012615
2026-09-29 20:36:17.954831104,-0.05027490234375,-0.296861328125,10.157924316406248,-0.0010652644360316954,-0.0010652644360316954,-0.0010652644360316954,359.33554352883243,0.7395825919975291,13.488052531296153
2026-09-29 20:36:17.954831104,-0.023940429687499997,-0.28489111328125,10.1746826171875,-0.0010652644360316954,-0.0010652644360316954,0.0,359.33294754450964,0.7387478685084564,13.488159024888962
2026-09-29 20:36:17.954831104,-0.00718212890625,-0.24898046875,10.2034111328125,-0.0010652644360316954,0.0,0.0,359.3303245862895,0.7379674719537166,13.487952829882747
2026-09-29 20:36:17.954831104,-0.06463916015625,-0.27770898437499997,10.172288574218749,-0.0010652644360316954,0.0,0.0,359.3279315439592,0.7371490359467987,13.487749706201171
2026-09-29 20:36:17.970457600,-0.05027490234375,-0.29925537109375,10.21538134765625,-0.0010652644360316954,-0.0010652644360316954,0.0,359.32563353788873,0.7359633363581094,13.487550970636974
2026-09-29 20:36:17.970457600,-0.023940429687499997,-0.2537685546875,10.212987304687498,-0.0010652644360316954,-0.0010652644360316954,-0.0010652644360316954,359.32305198270734,0.7345564778998277,13.487047572405856
2026-09-29 20:36:17.970457600,-0.0143642578125,-0.26573876953125,10.212987304687498,0.0,0.0,0.0,359.3214363454904,0.7338375562192798,13.487147913249437
2026-09-29 20:36:17.970457600,0.0,-0.258556640625,10.227351562499999,-0.0010652644360316954,0.0,-0.0010652644360316954,359.3190975639004,0.7327442425462802,13.4866440602463
2026-09-29 20:36:17.970457600,-0.0383046875,-0.26573876953125,10.22016943359375,0.0,0.0,0.0,359.3168080218658,0.7320539678595973,13.486438703479223
2026-09-29 20:36:17.970457600,-0.0143642578125,-0.27052685546875,10.229745605468748,0.0,0.0,0.0,359.3145978801144,0.731331435228258,13.486844441624422
2026-09-29 20:36:17.974568704,-0.009576171875,-0.27770898437499997,10.18186474609375,0.0,0.0,0.0,359.3127457887655,0.7308325140573411,13.486941968365025
2026-09-29 20:36:17.974568704,-0.026334472656249996,-0.27052685546875,10.1651064453125,-0.0010652644360316954,0.0,0.0,359.3103073607613,0.7297106616727872,13.486742120621663
2026-09-29 20:36:17.974568704,-0.047880859374999994,-0.27770898437499997,10.2417158203125,-0.0010652644360316954,-0.0010652644360316954,0.0,359.30780763549694,0.7289212462113012,13.486541401901242
2026-09-29 20:36:17.986575872,-0.028728515625,-0.24898046875,10.260868164062499,-0.0010652644360316954,0.0,0.0,359.30504316093675,0.7285088417754251,13.486337543012366
2026-09-29 20:36:18.002208000,-0.04548681640625,-0.296861328125,10.22495751953125,-0.0010652644360316954,0.0,0.0,359.30245155017843,0.7277505110683381,13.485826921254594
2026-09-29 20:36:18.002208000,-0.05027490234375,-0.23940429687499998,10.1938349609375,-0.0021305288720633907,-0.0010652644360316954,0.0,359.2991641482431,0.7264296242222934,13.485627745948204
2026-09-29 20:36:18.002208000,-0.01675830078125,-0.27531494140624996,10.18186474609375,-0.0010652644360316954,0.0,-0.0010652644360316954,359.2970158111911,0.7258660463143923,13.485122749628045
2026-09-29 20:36:18.033457664,-0.05027490234375,-0.29446728515625,10.18186474609375,0.0,-0.0010652644360316954,0.0,359.2952207860715,0.7245863493445179,13.485232229564456
2026-09-29 20:36:18.033457664,-0.043092773437499995,-0.2824970703125,10.18186474609375,-0.0021305288720633907,0.0,0.0,359.292255053018,0.7240303866012083,13.484720850060766
2026-09-29 20:36:18.033457664,0.01675830078125,-0.2824970703125,10.14834814453125,-0.0010652644360316954,-0.0010652644360316954,-0.0010652644360316954,359.28971863396646,0.7232901894290108,13.484214739999945
2026-09-29 20:36:18.049100544,0.00718212890625,-0.26095068359374995,10.150742187499999,-0.0010652644360316954,0.0,0.0,359.2871229689882,0.7223388914677873,13.483704127510437
2026-09-29 20:36:18.049100544,-0.011970214843749999,-0.23222216796874998,10.244109863281249,-0.0010652644360316954,-0.0010652644360316954,0.0,359.28448870636964,0.7206999564388873,13.48411998043772
2026-09-29 20:36:18.080332032,-0.026334472656249996,-0.28489111328125,10.2321396484375,0.0,0.0,-0.0010652644360316954,359.28287799887437,0.7199974809662671,13.483614103102877
2026-09-29 20:36:18.080332032,0.0,-0.258556640625,10.2417158203125,0.0,-0.0010652644360316954,0.0,359.281026057026,0.7190392523658027,13.483719402803096
2026-09-29 20:36:18.080332032,-0.023940429687499997,-0.229828125,10.196229003906248,0.0,0.0,0.0,359.27880349531586,0.7176894925974059,13.48382379023623
2026-09-29 20:36:18.096217856,-0.047880859374999994,-0.26334472656249996,10.18665283203125,-0.0021305288720633907,0.0,0.0,359.2763779321777,0.7170305909903426,13.483624400367574
2026-09-29 20:36:18.127465472,-0.043092773437499995,-0.29925537109375,10.25847412109375,0.0,0.0,0.0,359.2739832676619,0.7167640959791979,13.48311252427574
2026-09-29 20:36:18.127465472,0.00718212890625,-0.26095068359374995,10.16989453125,-0.0010652644360316954,0.0,0.0,359.271735203224,0.7165175525039671,13.4832089058298
2026-09-29 20:36:18.143091200,-0.03112255859375,-0.2681328125,10.2034111328125,-0.0010652644360316954,-0.0010652644360316954,0.0,359.26935737806235,0.7153188899420948,13.48331531749634
2026-09-29 20:36:18.174337792,-0.0622451171875,-0.28728515624999995,10.2034111328125,0.0,0.0,0.0,359.2678064443692,0.7140429973493476,13.48342449818
2026-09-29 20:36:18.189966336,-0.04069873046875,-0.27052685546875,10.205805175781249,-0.0010652644360316954,-0.0010652644360316954,-0.0010652644360316954,359.26541135850005,0.7132483025178448,13.48261169965786
2026-09-29 20:36:18.189966336,-0.009576171875,-0.29207324218749997,10.212987304687498,0.0,0.0,0.0,359.2633583644402,0.71262960710668,13.482104265691602
2026-09-29 20:36:18.221238016,-0.05266894531249999,-0.28489111328125,10.212987304687498,-0.0010652644360316954,0.0,0.0,359.2608339524093,0.7119254456614696,13.48189978033123
2026-09-29 20:36:18.221238016,-0.05027490234375,-0.30164941406249995,10.21538134765625,-0.0010652644360316954,-0.0010652644360316954,0.0,359.25857378890964,0.7110104194603235,13.482003937300053
2026-09-29 20:36:18.252462592,-0.026334472656249996,-0.28489111328125,10.1938349609375,-0.0010652644360316954,-0.0010652644360316954,0.0,359.25571004819056,0.710339488228995,13.481799113278424
2026-09-29 20:36:18.252462592,-0.05266894531249999,-0.28728515624999995,10.227351562499999,0.0,0.0,-0.0010652644360316954,359.2536829307817,0.7091556966392277,13.480990855502199
2026-09-29 20:36:18.252462592,-0.026334472656249996,-0.3064375,10.18665283203125,-0.0010652644360316954,-0.0010652644360316954,-0.0010652644360316954,359.25126322963376,0.7079588816535968,13.480185550368146
2026-09-29 20:36:18.252462592,-0.021546386718749998,-0.28489111328125,10.18186474609375,-0.0010652644360316954,0.0,0.0,359.2485480834989,0.7074121717017801,13.479978790356833
2026-09-29 20:36:18.252462592,-0.05266894531249999,-0.27770898437499997,10.15313623046875,-0.0010652644360316954,-0.0010652644360316954,0.0,359.2458968942874,0.706099846766123,13.480085757518504
2026-09-29 20:36:18.252462592,-0.05027490234375,-0.3064375,10.236927734375,-0.0010652644360316954,-0.0010652644360316954,0.0,359.243447837511,0.7050635748119221,13.480500807823153
2026-09-29 20:36:18.252462592,-0.04548681640625,-0.27770898437499997,10.16989453125,0.0,-0.0010652644360316954,0.0,359.24111408670774,0.7040185209715335,13.480608347685555
2026-09-29 20:36:18.252462592,-0.035910644531249994,-0.27770898437499997,10.162712402343749,-0.0010652644360316954,0.0,-0.0010652644360316954,359.23859251257346,0.7034485248914896,13.47979401168817
2026-09-29 20:36:18.268116992,-0.059851074218749994,-0.25137451171874997,10.19144091796875,-0.0010652644360316954,0.0,0.0,359.2363003494539,0.7027903481359402,13.479592525406419
2026-09-29 20:36:18.268116992,-0.04069873046875,-0.26334472656249996,10.201017089843749,-0.0010652644360316954,-0.0010652644360316954,0.0,359.2342949098252,0.7016330995857318,13.479704132728427
2026-09-29 20:36:18.283711232,-0.07182128906249999,-0.26095068359374995,10.15313623046875,0.0,-0.0010652644360316954,0.0,359.2319329528221,0.7005265866332241,13.479509973141669
2026-09-29 20:36:18.299335168,-0.00718212890625,-0.258556640625,10.145954101562499,-0.0021305288720633907,-0.0010652644360316954,0.0,359.2294023884648,0.69979322858269,13.479313488387959
2026-09-29 20:36:18.314958848,-0.0335166015625,-0.2824970703125,10.184258789062499,-0.0010652644360316954,-0.0010652644360316954,0.0,359.22717090614975,0.698351806885775,13.47942616768337
2026-09-29 20:36:18.314958848,-0.00718212890625,-0.28489111328125,10.205805175781249,0.0,0.0,-0.0010652644360316954,359.22501752102914,0.6983356612041032,13.478909440914377
2026-09-29 20:36:18.314958848,-0.028728515625,-0.28010302734375,10.19144091796875,-0.0010652644360316954,0.0,0.0,359.2226882005878,0.6979506895259715,13.47870352493446
2026-09-29 20:36:18.330583808,-0.011970214843749999,-0.29207324218749997,10.196229003906248,0.0,0.0,0.0,359.22070113379084,0.6970646394063915,13.478811465404016
2026-09-29 20:36:18.346208000,-0.01915234375,-0.31361962890624995,10.172288574218749,0.0,0.0,0.0,359.2185267449014,0.6968942889332291,13.47859941302198
2026-09-29 20:36:18.362318592,-0.00718212890625,-0.24898046875,10.19144091796875,-0.0021305288720633907,0.0,0.0,359.21598317856484,0.6960501701032068,13.478394919012432
2026-09-29 20:36:18.362318592,-0.0383046875,-0.26095068359374995,10.212987304687498,-0.0021305288720633907,-0.0010652644360316954,-0.0010652644360316954,359.2133923613922,0.6950203909528341,13.478197928082302
2026-09-29 20:36:18.377944064,-0.05027490234375,-0.2537685546875,10.1938349609375,-0.0021305288720633907,-0.0010652644360316954,0.0,359.2110679500827,0.6941605490670062,13.477695275227873
2026-09-29 20:36:18.377944064,-0.06942724609374999,-0.2824970703125,10.184258789062499,-0.0010652644360316954,0.0,0.0,359.20895069564193,0.6934522143013918,13.477500163164702
2026-09-29 20:36:18.409220096,0.0,-0.27531494140624996,10.167500488281249,-0.0010652644360316954,-0.0010652644360316954,0.0,359.2069710097233,0.6925593026191439,13.477303070124636
2026-09-29 20:36:18.409220096,-0.0383046875,-0.29207324218749997,10.25847412109375,-0.0010652644360316954,0.0,0.0,359.20483468962703,0.6914585556663545,13.477104135354532
2026-09-29 20:36:18.440933888,-0.067033203125,-0.2824970703125,10.198623046875,-0.0010652644360316954,-0.0010652644360316954,0.0,359.20234005025316,0.6902002672487877,13.477213991936777
2026-09-29 20:36:18.440933888,-0.0143642578125,-0.27770898437499997,10.222563476562499,0.0,0.0,0.0,359.2005787502324,0.6895773984252408,13.476710833468413
2026-09-29 20:36:18.440933888,-0.047880859374999994,-0.29925537109375,10.172288574218749,-0.0021305288720633907,-0.0010652644360316954,0.0,359.19809135465465,0.6882173679654987,13.476824569354344
2026-09-29 20:36:18.447635712,-0.028728515625,-0.28010302734375,10.155530273437499,0.0,0.0,0.0,359.1956582011052,0.6877351003088557,13.476316473746868
2026-09-29 20:36:18.456643072,-0.04548681640625,-0.26334472656249996,10.205805175781249,0.0,-0.0010652644360316954,-0.0021305288720633907,359.19355864338416,0.6870156496185238,13.475198509843306
2026-09-29 20:36:18.472275968,-0.00718212890625,-0.25137451171874997,10.18186474609375,-0.0010652644360316954,-0.0010652644360316954,0.0,359.19149097323674,0.6857239700141009,13.475004950060818
2026-09-29 20:36:18.487899392,0.00239404296875,-0.2824970703125,10.1938349609375,-0.0010652644360316954,-0.0010652644360316954,0.0,359.18942819201914,0.6844609325464852,13.474810746042156
2026-09-29 20:36:18.487899392,-0.0383046875,-0.258556640625,10.184258789062499,0.0,0.0,-0.0010652644360316954,359.18682848313523,0.6837387325465138,13.473999330562576
2026-09-29 20:36:18.519627776,-0.059851074218749994,-0.24658642578124998,10.22016943359375,-0.0010652644360316954,0.0,0.0,359.18449754982066,0.6840628447063494,13.474093409450047
2026-09-29 20:36:18.535257344,-0.05745703125,-0.30164941406249995,10.244109863281249,-0.0010652644360316954,0.0,-0.0010652644360316954,359.18224793726813,0.6835594659084053,13.473892749568517
2026-09-29 20:36:18.566477824,-0.05027490234375,-0.28489111328125,10.18665283203125,-0.0021305288720633907,-0.0010652644360316954,-0.0010652644360316954,359.17933921345156,0.6821096101018179,13.473395004166303
2026-09-29 20:36:18.582102784,-0.05745703125,-0.27770898437499997,10.2034111328125,-0.0010652644360316954,-0.0010652644360316954,0.0,359.1772231363633,0.6811374054485427,13.473501729403607
2026-09-29 20:36:18.613350656,-0.05745703125,-0.27052685546875,10.212987304687498,0.0,0.0,0.0,359.1754514128656,0.6805870411930366,13.473307351481864
2026-09-29 20:36:18.613350656,-0.06942724609374999,-0.30883154296875,10.217775390624999,0.0,0.0,0.0,359.1744566532785,0.6798558095677573,13.473416661015754
2026-09-29 20:36:18.628974592,-0.0143642578125,-0.28010302734375,10.17707666015625,0.0,0.0,-0.0010652644360316954,359.17259328572277,0.6795830949769848,13.472908167739128
2026-09-29 20:36:18.644599040,-0.055062988281249996,-0.27770898437499997,10.1938349609375,0.0,0.0,0.0,359.17055885005834,0.6788362395798391,13.472401370866768
2026-09-29 20:36:18.644599040,-0.0143642578125,-0.2729208984375,10.150742187499999,-0.0010652644360316954,-0.0010652644360316954,0.0,359.16846526583424,0.6776498911094075,13.471902682384489
2026-09-29 20:36:18.644599040,-0.076609375,-0.26334472656249996,10.21059326171875,0.0,0.0,-0.0010652644360316954,359.16699262158664,0.6766893891970642,13.471098217790415
2026-09-29 20:36:18.660223488,-0.04548681640625,-0.30404345703124996,10.20819921875,-0.0010652644360316954,0.0,0.0,359.1648152221599,0.6756718359169784,13.470907269808926
2026-09-29 20:36:18.660223488,-0.021546386718749998,-0.30164941406249995,10.234533691406249,-0.0010652644360316954,0.0,0.0,359.16269974281244,0.6748467269104302,13.471009755681578
2026-09-29 20:36:18.660223488,-0.0383046875,-0.30164941406249995,10.196229003906248,0.0,0.0,0.0,359.1605607421163,0.673685748913667,13.470814881994707
2026-09-29 20:36:18.663885824,-0.03112255859375,-0.28728515624999995,10.19144091796875,-0.0010652644360316954,0.0,0.0,359.15804525821017,0.6731745007988864,13.471221459827492
2026-09-29 20:36:18.663885824,-0.01915234375,-0.3208017578125,10.263262207031248,0.0,0.0,0.0,359.1568689670824,0.6727854232268612,13.470813223429005
2026-09-29 20:36:18.663885824,-0.03112255859375,-0.24658642578124998,10.229745605468748,0.0,-0.0010652644360316954,0.0,359.15512945345705,0.6713281636685308,13.470502921913683
2026-09-29 20:36:18.663885824,-0.05027490234375,-0.27052685546875,10.145954101562499,-0.0010652644360316954,0.0,0.0010652644360316954,359.15357129530923,0.6703333149569796,13.47080777686721
2026-09-29 20:36:18.663885824,-0.043092773437499995,-0.27052685546875,10.162712402343749,0.0,0.0,0.0,359.1522729776681,0.6705132329674908,13.471098554707202
2026-09-29 20:36:18.675890432,-0.043092773437499995,-0.28010302734375,10.229745605468748,-0.0010652644360316954,0.0,0.0,359.1503500131421,0.670244239785356,13.470779877135378
2026-09-29 20:36:18.691531008,-0.009576171875,-0.3112255859375,10.222563476562499,0.0,0.0,0.0,359.1490686457147,0.6689926230741596,13.469864910473781
2026-09-29 20:36:18.707144192,-0.01675830078125,-0.296861328125,10.222563476562499,0.0,-0.0010652644360316954,0.0010652644360316954,359.1477488544093,0.6677501746461666,13.470169912121808
2026-09-29 20:36:18.707144192,-0.035910644531249994,-0.27052685546875,10.1938349609375,0.0,0.0,0.0,359.1469480866107,0.6666039464967419,13.470473003748417
2026-09-29 20:36:18.707144192,-0.06942724609374999,-0.27770898437499997,10.19144091796875,-0.0010652644360316954,0.0,0.0,359.14491957797327,0.665783501222339,13.470165810470544
2026-09-29 20:36:18.722769920,-0.009576171875,-0.26573876953125,10.21059326171875,0.0,0.0,0.0,359.14357794791204,0.6653806991706745,13.469850381465447
2026-09-29 20:36:18.738504192,-0.0047880859375,-0.258556640625,10.21538134765625,0.0,0.0,0.0,359.1417180432382,0.6643562343550822,13.469846578889324
2026-09-29 20:36:18.754021888,-0.00239404296875,-0.28010302734375,10.2034111328125,0.0,0.0,0.0010652644360316954,359.1404725871723,0.6631810007904119,13.47015153371292
2026-09-29 20:36:18.785267200,-0.01915234375,-0.26334472656249996,10.167500488281249,0.0,0.0,0.0,359.13851537889053,0.6621325626795903,13.470146745758875
2026-09-29 20:36:18.785267200,-0.021546386718749998,-0.258556640625,10.2704443359375,0.0,-0.0010652644360316954,0.0,359.1374267708258,0.6614039208434191,13.469835281727017
2026-09-29 20:36:18.785267200,-0.021546386718749998,-0.258556640625,10.24889794921875,0.0,-0.0010652644360316954,0.0010652644360316954,359.1362517912003,0.6600355016545694,13.470450964112231
2026-09-29 20:36:18.785267200,-0.01915234375,-0.25137451171874997,10.172288574218749,0.0,0.0,0.0,359.13461760168025,0.6591277644828656,13.470449999590585
2026-09-29 20:36:18.796155904,-0.06942724609374999,-0.29446728515625,10.256080078124999,0.0,0.0,0.0,359.1328466005932,0.6589270549872506,13.470743368151565
2026-09-29 20:36:18.806902784,-0.03112255859375,-0.26573876953125,10.19144091796875,0.0,0.0,0.0,359.13157025021854,0.6582021666446544,13.470739486025822
2026-09-29 20:36:18.816404992,-0.01675830078125,-0.23940429687499998,10.201017089843749,0.0,0.0,0.0,359.1300636578298,0.6572517794069035,13.470431386190334
2026-09-29 20:36:18.816404992,-0.011970214843749999,-0.29446728515625,10.155530273437499,0.0,0.0,0.0,359.1289170919826,0.6562112490250598,13.470123974704055
2026-09-29 20:36:18.847663104,-0.07182128906249999,-0.2824970703125,10.162712402343749,0.0,0.0,0.0010652644360316954,359.12753826697093,0.6553118564821965,13.47072462819019
2026-09-29 20:36:18.847663104,-0.05745703125,-0.27052685546875,10.1746826171875,0.0,-0.0010652644360316954,0.0,359.12635474434035,0.6546012659815276,13.470721920521239
2026-09-29 20:36:18.879704576,-0.026334472656249996,-0.2824970703125,10.205805175781249,0.0,0.0,0.0,359.1251400164878,0.6537759924814751,13.471024032399036
2026-09-29 20:36:18.941591808,-0.07900341796874999,-0.28967919921874996,10.18186474609375,0.0,-0.0010652644360316954,0.0010652644360316954,359.1232633808604,0.6528582250551116,13.4716306553062
2026-09-29 20:36:18.941591808,0.011970214843749999,-0.296861328125,10.172288574218749,0.0,-0.0010652644360316954,0.0010652644360316954,359.1219854059175,0.6520378949504593,13.471936775016617
2026-09-29 20:36:18.941591808,-0.035910644531249994,-0.26095068359374995,10.172288574218749,0.0,0.0,0.0,359.12028474683643,0.6511952066413461,13.472232229276154
2026-09-29 20:36:18.957438464,-0.04548681640625,-0.27770898437499997,10.217775390624999,0.0,-0.0010652644360316954,0.0,359.11852354823,0.650253726579865,13.471924891589927
2026-09-29 20:36:18.973070080,-0.009576171875,-0.27052685546875,10.162712402343749,0.0,0.0,0.0,359.1176163185254,0.6497021578886076,13.472222351360832
2026-09-29 20:36:18.988693504,-0.076609375,-0.3064375,10.157924316406248,0.0,0.0,0.0,359.11649800268515,0.6491604367812696,13.471910682914759
2026-09-29 20:36:18.988693504,-0.059851074218749994,-0.296861328125,10.227351562499999,0.0,0.0,0.0,359.11524442928885,0.6481568273751435,13.471912018002351
2026-09-29 20:36:19.019942912,-0.04548681640625,-0.28489111328125,10.18665283203125,0.0,0.0,0.0,359.1139618367274,0.6471359046780081,13.471913251563477
2026-09-29 20:36:19.019942912,-0.0047880859375,-0.2681328125,10.172288574218749,0.0,0.0,0.0,359.1125943564478,0.6465457258813502,13.47129848931104
2026-09-29 20:36:19.019942912,-0.0335166015625,-0.2729208984375,10.22495751953125,0.0,-0.0010652644360316954,0.0,359.1108400163988,0.6451330574349109,13.470996083449018
2026-09-29 20:36:19.019942912,-0.0383046875,-0.26573876953125,10.21059326171875,0.0,0.0,0.0,359.10945395475784,0.6442874686040316,13.470689605711348
2026-09-29 20:36:19.019942912,-0.03112255859375,-0.3112255859375,10.18665283203125,0.0,0.0,0.0021305288720633907,359.10862355533493,0.6435378437319027,13.471297799668585
2026-09-29 20:36:19.019942912,-0.047880859374999994,-0.25616259765625,10.21538134765625,0.0,0.0,0.0,359.10698562957873,0.6429162498466321,13.471594046796868
2026-09-29 20:36:19.026038272,-0.00718212890625,-0.29446728515625,10.157924316406248,-0.0010652644360316954,0.0,0.0,359.10583880583783,0.6424170058323733,13.470980527209786
2026-09-29 20:36:19.026038272,-0.01915234375,-0.26573876953125,10.201017089843749,0.0,0.0,0.0,359.10501754084436,0.6414404160340018,13.470978818546223
2026-09-29 20:36:19.026038272,-0.011970214843749999,-0.27770898437499997,10.217775390624999,0.0,0.0,0.0010652644360316954,359.1042030236348,0.6407740080556893,13.471277585810915
2026-09-29 20:36:19.026038272,-0.03112255859375,-0.29446728515625,10.196229003906248,0.0,0.0,0.0,359.10257062178454,0.6404916535071359,13.471569245007942
2026-09-29 20:36:19.036043520,-0.04548681640625,-0.27770898437499997,10.222563476562499,0.0,0.0,0.0010652644360316954,359.1009965211593,0.6394793531528891,13.471871059170045
2026-09-29 20:36:19.051674624,-0.0383046875,-0.29446728515625,10.229745605468748,0.0,0.0,0.0010652644360316954,359.1002779180414,0.6388442123322018,13.472476049994027
2026-09-29 20:36:19.067299328,-0.04069873046875,-0.2537685546875,10.184258789062499,0.0,-0.0010652644360316954,0.0,359.09874310904195,0.637611493816932,13.472172902625983
2026-09-29 20:36:19.082924032,-0.0383046875,-0.28967919921874996,10.2321396484375,-0.0010652644360316954,-0.0010652644360316954,0.0,359.09720884807473,0.6367210000055525,13.472173411017756
2026-09-29 20:36:19.082924032,-0.067033203125,-0.26573876953125,10.22495751953125,0.0,0.0,0.0010652644360316954,359.09571015187356,0.6358623104343876,13.472476182967759
2026-09-29 20:36:19.082924032,-0.0143642578125,-0.25616259765625,10.18665283203125,0.0,-0.0010652644360316954,0.0,359.0944822603994,0.6345916234382983,13.47279160040427
2026-09-29 20:36:19.098548224,-0.021546386718749998,-0.2824970703125,10.222563476562499,0.0,0.0,0.0,359.0938047360753,0.6334160636558609,13.472796371254258
2026-09-29 20:36:19.122445312,-0.023940429687499997,-0.32798388671874995,10.22016943359375,0.0,0.0,0.0,359.09282585268016,0.6322477859347826,13.47249278502248
2026-09-29 20:36:19.122445312,-0.021546386718749998,-0.27531494140624996,10.222563476562499,0.0,0.0,0.0,359.09098138818644,0.6313116401001666,13.472181641373288
2026-09-29 20:36:19.131598848,-0.028728515625,-0.30883154296875,10.2321396484375,0.0,0.0,0.0,359.08990216642957,0.6302738715993237,13.472180609621155
2026-09-29 20:36:19.145095680,-0.00239404296875,-0.3064375,10.21538134765625,0.0,0.0,0.0,359.08809910408036,0.6297795749842194,13.472170204451086
2026-09-29 20:36:19.160733184,-0.043092773437499995,-0.22743408203124998,10.18186474609375,0.0,0.0010652644360316954,0.0,359.087040193418,0.6293412246856637,13.472156438646024
2026-09-29 20:36:19.160733184,-0.0383046875,-0.25137451171874997,10.256080078124999,0.0,-0.0010652644360316954,0.0010652644360316954,359.08633289247445,0.6281838196022089,13.47277481775391
2026-09-29 20:36:19.160733184,-0.043092773437499995,-0.26573876953125,10.172288574218749,0.0,0.0,0.0010652644360316954,359.0851789144101,0.6276563697516033,13.473076726099958
2026-09-29 20:36:19.176393216,-0.026334472656249996,-0.28489111328125,10.1363779296875,0.0,0.0,0.0,359.08400018285744,0.627145948215733,13.473069857513222
2026-09-29 20:36:19.192013312,-0.0143642578125,-0.28010302734375,10.150742187499999,0.0,-0.0010652644360316954,0.0,359.08285882588893,0.6258902531465906,13.472768070361012
2026-09-29 20:36:19.192013312,-0.0143642578125,-0.23222216796874998,10.20819921875,-0.0010652644360316954,0.0,0.0,359.081176757286,0.6247563316717852,13.47246223080853
2026-09-29 20:36:19.238853632,-0.035910644531249994,-0.26095068359374995,10.16989453125,0.0,0.0,0.0,359.0807322823887,0.6234832762852578,13.471859739077521
2026-09-29 20:36:19.238853632,-0.026334472656249996,-0.29207324218749997,10.17707666015625,-0.0010652644360316954,0.0,0.0,359.0792793065402,0.6221157529214437,13.471557998416708
2026-09-29 20:36:19.278908928,-0.047880859374999994,-0.25616259765625,10.227351562499999,0.0,0.0,0.0,359.0786312439426,0.6215222199765397,13.471553573205915
2026-09-29 20:36:19.285925888,-0.05745703125,-0.31601367187499996,10.2417158203125,0.0,0.0,0.0010652644360316954,359.0780039153612,0.6202431141964615,13.471864382565405
2026-09-29 20:36:19.285925888,-0.00718212890625,-0.26573876953125,10.18665283203125,0.0,0.0,0.0,359.07592868702824,0.6194328522623901,13.471554422010367
2026-09-29 20:36:19.308706560,-0.05745703125,-0.27531494140624996,10.179470703124998,0.0,0.0,0.0010652644360316954,359.07483339248734,0.618673191595033,13.472468893619734
2026-09-29 20:36:19.308706560,-0.035910644531249994,-0.2681328125,10.162712402343749,0.0,-0.0010652644360316954,0.0,359.0731032958459,0.617670053302204,13.472167553450907
2026-09-29 20:36:19.308706560,-0.0335166015625,-0.2824970703125,10.1363779296875,0.0,0.0,0.0,359.07192179283425,0.6170330727860431,13.472165667065344
2026-09-29 20:36:19.317959936,-0.05266894531249999,-0.2537685546875,10.2321396484375,-0.0010652644360316954,0.0,0.0,359.06989076261743,0.6164000320143048,13.472159581876912
2026-09-29 20:36:19.317959936,-0.00239404296875,-0.27531494140624996,10.205805175781249,-0.0010652644360316954,-0.0010652644360316954,0.0,359.0679500201264,0.6156567521430817,13.4721594894159
2026-09-29 20:36:19.317959936,-0.05027490234375,-0.28489111328125,10.20819921875,0.0,-0.0010652644360316954,0.0,359.0666110512755,0.6136162905614447,13.472174278326442
2026-09-29 20:36:19.317959936,-0.0047880859375,-0.2681328125,10.217775390624999,0.0,-0.0010652644360316954,0.0,359.06564035575894,0.6129068275961188,13.471564718141824
2026-09-29 20:36:19.317959936,-0.021546386718749998,-0.2729208984375,10.20819921875,0.0,0.0,0.0,359.064302635934,0.6118344792859458,13.471259570120068
2026-09-29 20:36:19.333591296,-0.028728515625,-0.2681328125,10.256080078124999,0.0,-0.0010652644360316954,0.0,359.0629809184521,0.6111539550149573,13.470644627308678
2026-09-29 20:36:19.333591296,-0.021546386718749998,-0.3064375,10.1746826171875,0.0,0.0,0.0,359.0618956128633,0.6106163609496846,13.470639002911991
2026-09-29 20:36:19.349217792,-0.009576171875,-0.26095068359374995,10.21059326171875,-0.0010652644360316954,-0.0010652644360316954,0.0,359.06008935694837,0.6100780715720586,13.470937407955022
2026-09-29 20:36:19.376883200,0.0047880859375,-0.26095068359374995,10.2034111328125,0.0,0.0,0.0,359.05920108134166,0.6094151256323539,13.470933833667013
2026-09-29 20:36:19.376883200,-0.055062988281249996,-0.30164941406249995,10.172288574218749,0.0,0.0,0.0,359.05853909968664,0.6082637985165267,13.470934428666371
2026-09-29 20:36:19.396423424,-0.035910644531249994,-0.26334472656249996,10.21538134765625,0.0,0.0,0.0,359.05685185223575,0.6078072893705186,13.470925749633608
2026-09-29 20:36:19.399632128,-0.043092773437499995,-0.28010302734375,10.189046874999999,0.0010652644360316954,0.0,0.0,359.05613143902434,0.6071537133717602,13.470615722718428
2026-09-29 20:36:19.412149504,-0.04548681640625,-0.26334472656249996,10.234533691406249,0.0,0.0,0.0010652644360316954,359.0550429945024,0.607110173040913,13.470910218187646
2026-09-29 20:36:19.412149504,-0.0047880859375,-0.23701025390624997,10.1651064453125,0.0,0.0,0.0,359.05395467503814,0.60686762013853,13.47060279877228
2026-09-29 20:36:19.427836416,-0.0383046875,-0.27052685546875,10.227351562499999,0.0,0.0,0.0,359.0533656808144,0.6063064435671534,13.470599272113766
2026-09-29 20:36:19.451783424,-0.028728515625,-0.26573876953125,10.1938349609375,-0.0010652644360316954,0.0,0.0,359.051410630701,0.605937268193963,13.470594203681241
2026-09-29 20:36:19.455792384,-0.009576171875,-0.2729208984375,10.1363779296875,0.0,0.0,0.0,359.05034589990305,0.6053261335895466,13.470894026813697
2026-09-29 20:36:19.467214592,-0.07900341796874999,-0.25616259765625,10.22016943359375,0.0,0.0,0.0,359.049327271993,0.60475530285093,13.47058741149518
2026-09-29 20:36:19.491257600,-0.0143642578125,-0.27531494140624996,10.21538134765625,-0.0010652644360316954,0.0,0.0010652644360316954,359.04776880084574,0.604181067926287,13.47089357061664
2026-09-29 20:36:19.506889728,-0.01675830078125,-0.26573876953125,10.21059326171875,0.0,-0.0010652644360316954,0.0,359.0465739231646,0.6032833934376763,13.470586917438895
2026-09-29 20:36:19.506889728,-0.0335166015625,-0.27531494140624996,10.22016943359375,0.0,-0.0021305288720633907,0.0,359.04575491835226,0.6017828581464435,13.470599384433564
2026-09-29 20:36:19.506889728,-0.05745703125,-0.26334472656249996,10.14356005859375,0.0,0.0,0.0,359.0448011481636,0.6012424178761584,13.470595285282469
2026-09-29 20:36:19.506889728,0.0,-0.28010302734375,10.196229003906248,0.0,0.0,0.0,359.0438948313045,0.6003763817477232,13.47059682204869
2026-09-29 20:36:19.506889728,-0.03112255859375,-0.25616259765625,10.2034111328125,0.0,-0.0010652644360316954,0.0,359.0420638851684,0.5996100423754669,13.470289981070257
2026-09-29 20:36:19.529829376,-0.04069873046875,-0.26334472656249996,10.212987304687498,0.0,0.0,0.0,359.0413431829071,0.5985965701197064,13.470293373375254
2026-09-29 20:36:19.539869184,-0.047880859374999994,-0.26095068359374995,10.15313623046875,0.0,0.0,0.0,359.0406300199931,0.5974821212921066,13.470603997292084
2026-09-29 20:36:19.553934336,-0.05745703125,-0.28728515624999995,10.172288574218749,0.0,-0.0010652644360316954,0.0,359.0393581139682,0.5965113821722208,13.470304920361128
2026-09-29 20:36:19.589813504,-0.0383046875,-0.26334472656249996,10.227351562499999,0.0,0.0,0.0,359.0379427807266,0.5960130491175633,13.470604390176286
2026-09-29 20:36:19.590722816,0.0047880859375,-0.27052685546875,10.25847412109375,0.0,0.0,0.0,359.03749909655465,0.595043903926558,13.470607597365303
2026-09-29 20:36:19.601228288,-0.03112255859375,-0.28010302734375,10.2417158203125,0.0,0.0010652644360316954,0.0,359.03702681854844,0.5946485407247154,13.469986989364019
2026-09-29 20:36:19.607739904,-0.035910644531249994,-0.29925537109375,10.189046874999999,0.0,-0.0010652644360316954,0.0010652644360316954,359.0354920113765,0.593493014470411,13.47060074320952
2026-09-29 20:36:19.618930688,-0.06942724609374999,-0.26573876953125,10.196229003906248,0.0,0.0,0.0010652644360316954,359.0339667399954,0.5930130458336241,13.470899138670932
2026-09-29 20:36:19.618930688,-0.0383046875,-0.29925537109375,10.234533691406249,0.0,-0.0010652644360316954,0.0,359.0330543705955,0.5923608034028675,13.47120585208126
2026-09-29 20:36:19.648621312,-0.028728515625,-0.29925537109375,10.2034111328125,-0.0010652644360316954,0.0,0.0010652644360316954,359.0312461962387,0.5917084736773229,13.471504444098505
2026-09-29 20:36:19.695648000,-0.023940429687499997,-0.296861328125,10.205805175781249,-0.0010652644360316954,-0.0010652644360316954,0.0,359.02990039053105,0.5902648762571836,13.471820123960951
2026-09-29 20:36:19.695648000,-0.026334472656249996,-0.2681328125,10.205805175781249,0.0,0.0,0.0,359.0287827000144,0.5893609350915204,13.471819704707434
2026-09-29 20:36:19.695648000,-0.026334472656249996,-0.2537685546875,10.150742187499999,0.0,0.0,0.0,359.0275475153353,0.5895322161563725,13.471805599842057
2026-09-29 20:36:19.711276288,-0.055062988281249996,-0.28728515624999995,10.172288574218749,-0.0010652644360316954,-0.0021305288720633907,0.0,359.02606745573996,0.5884413012618956,13.471507815839416
2026-09-29 20:36:19.726900224,-0.047880859374999994,-0.29207324218749997,10.21059326171875,0.0,0.0,0.0,359.02455594183976,0.5874502357511664,13.471511667640478
2026-09-29 20:36:19.726900224,0.0,-0.258556640625,10.256080078124999,0.0,-0.0010652644360316954,0.0,359.0231403101828,0.5870161733842364,13.470895938480524
2026-09-29 20:36:19.726900224,-0.023940429687499997,-0.26095068359374995,10.155530273437499,0.0,0.0,0.0,359.02224310824204,0.5858425794357826,13.470287690226742
2026-09-29 20:36:19.726900224,-0.028728515625,-0.2729208984375,10.196229003906248,0.0,-0.0010652644360316954,0.0,359.02104110948375,0.5845663891447356,13.470294712785629
2026-09-29 20:36:19.726900224,-0.067033203125,-0.28728515624999995,10.2321396484375,0.0,0.0,0.0,359.0200999835759,0.5842695886957578,13.470290962548669
2026-09-29 20:36:19.726900224,-0.059851074218749994,-0.258556640625,10.189046874999999,0.0,0.0,0.0010652644360316954,359.01969379196566,0.5837064110844439,13.47029174570348
2026-09-29 20:36:19.726900224,-0.035910644531249994,-0.28967919921874996,10.18665283203125,0.0,-0.0010652644360316954,0.0,359.01890607526474,0.5831097703474948,13.47059999464541
2026-09-29 20:36:19.742525696,-0.055062988281249996,-0.26573876953125,10.263262207031248,0.0,-0.0010652644360316954,0.0,359.01744349511614,0.5815479988610773,13.469999710980133
2026-09-29 20:36:19.773775872,-0.035910644531249994,-0.25616259765625,10.172288574218749,0.0,0.0,0.0,359.0167207454883,0.5810247103218091,13.469698427574784
2026-09-29 20:36:19.773775872,0.0,-0.24898046875,10.2034111328125,0.0,-0.0010652644360316954,0.0,359.0155014334146,0.5798649061135212,13.469705553699933
2026-09-29 20:36:19.792686080,-0.047880859374999994,-0.28489111328125,10.1651064453125,0.0,-0.0010652644360316954,0.0010652644360316954,359.01470613477755,0.5786226990776153,13.470324206638667
2026-09-29 20:36:19.793703680,-0.04069873046875,-0.28010302734375,10.19144091796875,0.0,-0.0010652644360316954,0.0010652644360316954,359.0136151534942,0.5780282319907865,13.470629348155011
2026-09-29 20:36:19.820954112,-0.0335166015625,-0.26573876953125,10.198623046875,0.0,0.0,0.0,359.0123661627632,0.5775879032902981,13.470625593597507
2026-09-29 20:36:19.820954112,-0.026334472656249996,-0.28967919921874996,10.222563476562499,0.0,-0.0021305288720633907,0.0,359.0112419620247,0.5764436402120063,13.470633705589922
2026-09-29 20:36:19.836578560,-0.0383046875,-0.25616259765625,10.227351562499999,0.0,0.0,0.0010652644360316954,359.00968532037166,0.5755598574585342,13.470937426259646
2026-09-29 20:36:19.836578560,-0.04548681640625,-0.28010302734375,10.21059326171875,0.0,0.0,0.0,359.008565701679,0.5747650313989744,13.47094032199704
2026-09-29 20:36:19.836578560,-0.023940429687499997,-0.27770898437499997,10.22016943359375,0.0,-0.0010652644360316954,0.0,359.00713706387006,0.5740071441501512,13.470943199730353
2026-09-29 20:36:19.836578560,-0.05027490234375,-0.2681328125,10.24889794921875,0.0,0.0010652644360316954,0.0021305288720633907,359.00613499703974,0.5737894238839688,13.471238868571222
2026-09-29 20:36:19.836578560,-0.011970214843749999,-0.28489111328125,10.21059326171875,0.0,-0.0010652644360316954,0.0010652644360316954,359.0050240700425,0.5730960345829428,13.47184908725429
2026-09-29 20:36:19.852204288,-0.0383046875,-0.28010302734375,10.17707666015625,0.0,0.0,0.0,359.0040418066322,0.5716592722599227,13.472160853073722
2026-09-29 20:36:19.867828480,-0.06942724609374999,-0.28010302734375,10.198623046875,0.0,-0.0010652644360316954,0.0,359.00278928101426,0.5710960528043931,13.472162508807552
2026-09-29 20:36:19.867828480,-0.01675830078125,-0.2681328125,10.145954101562499,0.0,0.0,0.0,359.0021447461358,0.5707281211005905,13.4718590168284
2026-09-29 20:36:19.883453184,-0.0335166015625,-0.28010302734375,10.19144091796875,0.0,0.0,0.0010652644360316954,359.00071025367885,0.5699290825119159,13.471856730565179
2026-09-29 20:36:19.899074816,-0.04069873046875,-0.24658642578124998,10.2417158203125,0.0,-0.0010652644360316954,0.0,358.99950350742176,0.5689323512567184,13.471864172523393
2026-09-29 20:36:19.914707200,-0.03112255859375,-0.27052685546875,10.184258789062499,0.0,0.0,0.0,358.99910711943556,0.5678442017747536,13.4712635338982
2026-09-29 20:36:19.914707200,-0.047880859374999994,-0.27052685546875,10.268050292968748,0.0,-0.0010652644360316954,0.0,358.9979495011425,0.5668413483065888,13.470661468926584
2026-09-29 20:36:19.930340096,-0.0383046875,-0.29207324218749997,10.1651064453125,0.0010652644360316954,0.0,0.0,358.99717800662717,0.5661397051540163,13.470662036218624
2026-09-29 20:36:19.930340096,-0.011970214843749999,-0.28010302734375,10.2034111328125,0.0,-0.0010652644360316954,0.0,358.99603946881916,0.5650607303497404,13.470667275791712
2026-09-29 20:36:19.981166848,-0.026334472656249996,-0.26334472656249996,10.184258789062499,0.0,0.0,0.0,358.99554153078844,0.5645134160559092,13.47066507962493
2026-09-29 20:36:19.981166848,-0.028728515625,-0.2824970703125,10.201017089843749,0.0,0.0,0.0,358.99452898792305,0.5640321727392693,13.470663899352717
2026-09-29 20:36:19.993414656,-0.043092773437499995,-0.26573876953125,10.205805175781249,0.0,-0.0010652644360316954,0.0,358.9932127991826,0.5626834836630221,13.470370769055034
2026-09-29 20:36:20.024669696,0.0047880859375,-0.27531494140624996,10.234533691406249,0.0,0.0,0.0,358.99196733061405,0.5620124165141585,13.470067535884649
2026-09-29 20:36:20.024669696,-0.011970214843749999,-0.29446728515625,10.205805175781249,-0.0010652644360316954,-0.0021305288720633907,0.0010652644360316954,358.99050556454836,0.5607170194149118,13.47038088500043
2026-09-29 20:36:20.056308736,-0.011970214843749999,-0.258556640625,10.18665283203125,0.0,0.0,0.0010652644360316954,358.9895482243126,0.5599307926135613,13.47129264465322
2026-09-29 20:36:20.056308736,-0.05266894531249999,-0.28010302734375,10.20819921875,0.0,0.0,0.0,358.9890785637354,0.5587361521840563,13.47160676819241
2026-09-29 20:36:20.056308736,-0.06942724609374999,-0.2681328125,10.22016943359375,0.0,0.0,0.0,358.98752640449214,0.5583168229995009,13.471603315615015
2026-09-29 20:36:20.056308736,0.01675830078125,-0.29446728515625,10.196229003906248,0.0,0.0,0.0,358.98671385099294,0.5577955069097322,13.471601181560686
2026-09-29 20:36:20.061070848,-0.05266894531249999,-0.28728515624999995,10.18665283203125,0.0,-0.0010652644360316954,0.0,358.9857757244337,0.5564704497068855,13.471303561393725
2026-09-29 20:36:20.061070848,0.00239404296875,-0.26573876953125,10.21059326171875,0.0,0.0,0.0010652644360316954,358.98503976710265,0.5555784832558898,13.47192029730468
2026-09-29 20:36:20.061070848,-0.043092773437499995,-0.27770898437499997,10.167500488281249,0.0,0.0,0.0,358.9841313820916,0.5546495143574535,13.471922609001663
2026-09-29 20:36:20.071958528,-0.011970214843749999,-0.296861328125,10.22016943359375,0.0,0.0,0.0,358.98286724546125,0.5538541370590377,13.471924532602392
2026-09-29 20:36:20.087606784,-0.026334472656249996,-0.28728515624999995,10.172288574218749,0.0,-0.0010652644360316954,0.0,358.9819372872549,0.5527286276020922,13.471932083773456
2026-09-29 20:36:20.087606784,-0.00718212890625,-0.26573876953125,10.1938349609375,0.0,0.0,0.0,358.98120482579094,0.5517333310201379,13.472243785625313
2026-09-29 20:36:20.103298816,-0.0383046875,-0.258556640625,10.212987304687498,0.0,0.0,0.0,358.9800457473315,0.5510933678683015,13.47224132321754
2026-09-29 20:36:20.134560256,-0.01915234375,-0.24179833984375,10.184258789062499,0.0,-0.0021305288720633907,0.0,358.97868980441854,0.5497973170883251,13.471951169456423
2026-09-29 20:36:20.165816320,-0.00239404296875,-0.26095068359374995,10.18186474609375,0.0,0.0,0.0,358.97834562684983,0.5490275017176344,13.471956094586677
2026-09-29 20:36:20.165816320,-0.01675830078125,-0.29207324218749997,10.227351562499999,0.0,-0.0010652644360316954,0.0,358.97724597282655,0.5480339306282159,13.471965127037798
2026-09-29 20:36:20.165816320,-0.03112255859375,-0.26573876953125,10.20819921875,0.0,0.0,0.0,358.97585518199116,0.548063292359545,13.471344974807907
2026-09-29 20:36:20.165816320,-0.059851074218749994,-0.24419238281249997,10.19144091796875,0.0,0.0,0.0,358.9749502126313,0.5476062970647844,13.471036999135837
2026-09-29 20:36:20.171548672,-0.023940429687499997,-0.27531494140624996,10.222563476562499,0.0,0.0,0.0010652644360316954,358.9739637032665,0.5474635763146093,13.471335867538981
2026-09-29 20:36:20.171548672,-0.05266894531249999,-0.27770898437499997,10.205805175781249,0.0,0.0,0.0,358.972829492428,0.5467067990060736,13.471033967847577
2026-09-29 20:36:20.171548672,-0.04548681640625,-0.2729208984375,10.212987304687498,0.0,0.0,0.0,358.9715134144193,0.5463614362292392,13.470724956794609
2026-09-29 20:36:20.200651776,-0.023940429687499997,-0.30164941406249995,10.141166015624998,0.0,0.0,0.0,358.9705109539718,0.5452848771254746,13.47042702594016
2026-09-29 20:36:20.201670912,-0.01915234375,-0.29446728515625,10.133983886718749,0.0,0.0010652644360316954,0.0,358.96935823477645,0.5450362048944255,13.470111267093426
2026-09-29 20:36:20.212307200,-0.03112255859375,-0.28489111328125,10.239321777343749,0.0,-0.0021305288720633907,0.0,358.9680723303588,0.5437482710935946,13.47012416525885
2026-09-29 20:36:20.243566336,-0.059851074218749994,-0.27531494140624996,10.196229003906248,-0.0010652644360316954,0.0,0.0,358.9665615253751,0.5435835783239672,13.470121386532913
2026-09-29 20:36:20.252904448,-0.047880859374999994,-0.26573876953125,10.145954101562499,0.0,0.0,0.0,358.9652868856178,0.5433028545537432,13.4701178981101
2026-09-29 20:36:20.252904448,-0.026334472656249996,-0.27052685546875,10.239321777343749,0.0,-0.0010652644360316954,0.0010652644360316954,358.96424893388644,0.542594516031661,13.470732452042764
2026-09-29 20:36:20.274983168,-0.043092773437499995,-0.26573876953125,10.196229003906248,0.0,0.0,0.0,358.9630116866462,0.5423127433816303,13.470732134539295
2026-09-29 20:36:20.277569536,0.0047880859375,-0.24898046875,10.17707666015625,0.0,0.0,0.0010652644360316954,358.9620057224992,0.5416724344625788,13.471347001020815
2026-09-29 20:36:20.277569536,-0.021546386718749998,-0.296861328125,10.18186474609375,-0.0010652644360316954,0.0,0.0,358.96064378115955,0.5412579065197808,13.471040448840997
2026-09-29 20:36:20.277569536,-0.028728515625,-0.29925537109375,10.21059326171875,0.0,0.0,0.0,358.959740574602,0.5411404620031749,13.471032021002731
2026-09-29 20:36:20.286327296,-0.021546386718749998,-0.27531494140624996,10.196229003906248,0.0,0.0,0.0,358.95857441254685,0.5408110188917289,13.471026600332305
2026-09-29 20:36:20.306723328,-0.06942724609374999,-0.28967919921874996,10.22495751953125,0.0,0.0,0.0,358.9569234923691,0.5404069049795521,13.470412316144289
2026-09-29 20:36:20.306723328,-0.011970214843749999,-0.27770898437499997,10.198623046875,-0.0010652644360316954,-0.0010652644360316954,0.0,358.95551990698965,0.5399868404192005,13.470416071176562
2026-09-29 20:36:20.338185984,-0.023940429687499997,-0.25137451171874997,10.196229003906248,0.0,0.0,0.0,358.9547071729247,0.5394075046141712,13.470414105136586
2026-09-29 20:36:20.372759808,-0.04548681640625,-0.26334472656249996,10.184258789062499,0.0,0.0,0.0,358.95384280166587,0.5388948508934065,13.470420093763328
2026-09-29 20:36:20.373383168,0.0,-0.27052685546875,10.196229003906248,0.0,0.0,0.0,358.9530948745653,0.5387099559611408,13.470113535063374
2026-09-29 20:36:20.385146624,-0.05027490234375,-0.2729208984375,10.179470703124998,0.0,0.0,0.0010652644360316954,358.95237198974263,0.5382905174676608,13.47071709882543
2026-09-29 20:36:20.385146624,-0.01675830078125,-0.28489111328125,10.244109863281249,0.0,0.0,0.0,358.95120413461217,0.5380010161798162,13.471019829240447
2026-09-29 20:36:20.400777984,-0.067033203125,-0.26573876953125,10.234533691406249,0.0,-0.0010652644360316954,0.0,358.95012688276705,0.5372500925166114,13.471023793081963
2026-09-29 20:36:20.402909696,-0.0335166015625,-0.29446728515625,10.18665283203125,0.0,0.0,0.0,358.9489254303307,0.5367354724972415,13.47072148066967
2026-09-29 20:36:20.402909696,-0.0143642578125,-0.296861328125,10.196229003906248,-0.0010652644360316954,-0.0010652644360316954,0.0,358.9475880525046,0.5357352353136484,13.471036640453002
2026-09-29 20:36:20.402909696,-0.04548681640625,-0.26095068359374995,10.222563476562499,0.0,0.0,0.0,358.9458391257205,0.5355210170915794,13.471025976993099
2026-09-29 20:36:20.406353152,-0.04548681640625,-0.2729208984375,10.196229003906248,0.0,-0.0010652644360316954,0.0010652644360316954,358.9448398926376,0.5344365656823955,13.47134140928926
2026-09-29 20:36:20.417392128,-0.067033203125,-0.2729208984375,10.21059326171875,0.0,0.0,0.0,358.94437684230576,0.5337895429510777,13.471345466461434
2026-09-29 20:36:20.432408064,-0.0622451171875,-0.27052685546875,10.18665283203125,0.0,-0.0010652644360316954,0.0,358.9436078131987,0.5331632800690801,13.471050127661718
2026-09-29 20:36:20.463663616,-0.01915234375,-0.28489111328125,10.198623046875,0.0,-0.0010652644360316954,0.0,358.9425072282697,0.5321818779407471,13.470754458253738
2026-09-29 20:36:20.463663616,-0.04069873046875,-0.29446728515625,10.212987304687498,0.0,0.0,0.0010652644360316954,358.94172700308934,0.5313103234297113,13.4713744126488
2026-09-29 20:36:20.463663616,-0.03112255859375,-0.27770898437499997,10.25847412109375,0.0,0.0,0.0010652644360316954,358.94145932332987,0.5307944554550644,13.471677040186364
2026-09-29 20:36:20.463663616,-0.04069873046875,-0.27770898437499997,10.246503906249998,0.0,-0.0010652644360316954,0.0,358.9403363140558,0.5302158390131189,13.471680671755463
2026-09-29 20:36:20.494920704,-0.06942724609374999,-0.25616259765625,10.25368603515625,-0.0010652644360316954,0.0,0.0,358.9390549465931,0.5298050952207288,13.471990846929385
2026-09-29 20:36:20.510971904,-0.04548681640625,-0.24658642578124998,10.1651064453125,0.0,-0.0010652644360316954,0.0,358.9384550532271,0.5293270645966479,13.472301763482088
2026-09-29 20:36:20.510971904,-0.04069873046875,-0.2681328125,10.244109863281249,0.0,0.0,0.0,358.9375992529763,0.5292367852757304,13.472302329471663
2026-09-29 20:36:20.526639360,-0.0383046875,-0.27531494140624996,10.138771972656249,0.0,0.0,0.0010652644360316954,358.9364802767988,0.5290146711039236,13.472608337821523
2026-09-29 20:36:20.526639360,-0.01675830078125,-0.2681328125,10.16989453125,0.0,-0.0010652644360316954,0.0010652644360316954,358.9352372778201,0.5280878860584152,13.473226910496304
2026-09-29 20:36:20.526639360,-0.026334472656249996,-0.24898046875,10.15313623046875,0.0,0.0,0.0010652644360316954,358.93430636623077,0.5278768358966751,13.473834203580656
2026-09-29 20:36:20.526639360,-0.05027490234375,-0.296861328125,10.205805175781249,-0.0010652644360316954,-0.0010652644360316954,0.0010652644360316954,358.93299240459754,0.5266586436248389,13.474454999870714
2026-09-29 20:36:20.557904896,-0.05027490234375,-0.30883154296875,10.17707666015625,0.0,0.0,0.0,358.93223044180974,0.5262809170582469,13.474764411424497
2026-09-29 20:36:20.557904896,0.009576171875,-0.26573876953125,10.21538134765625,-0.0010652644360316954,0.0,0.0,358.9304645360379,0.5256641701876675,13.474767856636117
2026-09-29 20:36:20.589611264,-0.05266894531249999,-0.28489111328125,10.272838378906249,0.0,0.0,0.0,358.929926117687,0.5249869372937179,13.47446641097075
2026-09-29 20:36:20.589611264,-0.07900341796874999,-0.32798388671874995,10.21538134765625,0.0,0.0,0.0,358.9287469303888,0.5247510880354641,13.474463954000385
2026-09-29 20:36:20.622305792,-0.026334472656249996,-0.30404345703124996,10.16989453125,0.0,0.0,0.0,358.92773413466784,0.5245200656068109,13.474460216165529
2026-09-29 20:36:20.622305792,-0.04548681640625,-0.28967919921874996,10.21538134765625,0.0,0.0,0.0010652644360316954,358.9264293684779,0.5241783717359493,13.47476177242243
2026-09-29 20:36:20.622305792,-0.026334472656249996,-0.26095068359374995,10.22016943359375,-0.0010652644360316954,-0.0010652644360316954,0.0,358.925022625293,0.5229604424795334,13.474472108947511
2026-09-29 20:36:20.653213440,-0.00718212890625,-0.24419238281249997,10.20819921875,0.0,-0.0010652644360316954,0.0,358.92410299261564,0.5223713785132423,13.474477810313441
2026-09-29 20:36:20.653213440,-0.03112255859375,-0.2824970703125,10.17707666015625,0.0,-0.0010652644360316954,0.0010652644360316954,358.92365039176366,0.5216713258368141,13.474784332350241
2026-09-29 20:36:20.653213440,0.0047880859375,-0.26334472656249996,10.20819921875,0.0,-0.0010652644360316954,0.0,358.92274169080156,0.5211139393890076,13.474787315181322
2026-09-29 20:36:20.653213440,-0.0335166015625,-0.23940429687499998,10.167500488281249,0.0,0.0,0.0,358.9217470566956,0.5201905357885132,13.474182196773764
2026-09-29 20:36:20.653213440,-0.01915234375,-0.25137451171874997,10.236927734375,0.0,-0.0010652644360316954,0.0,358.9212728231789,0.519400650412449,13.474189313479263
2026-09-29 20:36:20.668846848,-0.055062988281249996,-0.25616259765625,10.179470703124998,0.0,-0.0010652644360316954,0.0010652644360316954,358.92023271205665,0.5187308382229998,13.474499064476294
2026-09-29 20:36:20.700417792,-0.011970214843749999,-0.27531494140624996,10.196229003906248,0.0,0.0,0.0,358.9191703085205,0.5182862503353881,13.47449778534772
2026-09-29 20:36:20.716043776,0.05266894531249999,-0.29207324218749997,10.236927734375,0.0,0.0,0.0,358.9176922552035,0.5182713476360712,13.474789073002144
2026-09-29 20:36:20.762914304,-0.00718212890625,-0.26095068359374995,10.222563476562499,0.0,0.0,0.0,358.916574382612,0.5173889270907851,13.474787219518559
2026-09-29 20:36:20.794164992,-0.023940429687499997,-0.29446728515625,10.15313623046875,-0.0010652644360316954,0.0,0.0,358.9152040905033,0.5167145680251486,13.475091126523353
2026-09-29 20:36:20.794164992,-0.0335166015625,-0.27770898437499997,10.239321777343749,-0.0010652644360316954,0.0,0.0,358.9134310308491,0.5161175281118563,13.475088843230703
2026-09-29 20:36:20.809790464,-0.011970214843749999,-0.25137451171874997,10.18665283203125,0.0,0.0,0.0,358.9126256752413,0.5157947402964963,13.475087178335688
2026-09-29 20:36:20.809790464,-0.0383046875,-0.30404345703124996,10.227351562499999,0.0,0.0,0.0,358.91238168981664,0.5146889876684516,13.47479427187551
2026-09-29 20:36:20.809790464,-0.04069873046875,-0.29925537109375,10.22016943359375,0.0,0.0010652644360316954,0.0,358.91163513456763,0.5147327013942887,13.475092391540496
2026-09-29 20:36:20.825489408,-0.026334472656249996,-0.31361962890624995,10.2034111328125,0.0,0.0,0.0,358.9110878480435,0.5145782215497118,13.475389521902855
2026-09-29 20:36:20.825489408,-0.01915234375,-0.27770898437499997,10.21538134765625,0.0,0.0,0.0,358.9101369840387,0.5139031971369441,13.475392267456614
2026-09-29 20:36:20.825489408,-0.0383046875,-0.27531494140624996,10.189046874999999,0.0,0.0010652644360316954,0.0010652644360316954,358.90989352553777,0.5140174319535252,13.47568360107925
2026-09-29 20:36:20.825489408,0.0,-0.27770898437499997,10.138771972656249,0.0,0.0,0.0010652644360316954,358.9088917226695,0.5140127209189908,13.475988080868376
2026-09-29 20:36:20.825489408,-0.04069873046875,-0.26573876953125,10.18186474609375,0.0,0.0,0.0,358.90802202834186,0.5132744296574265,13.475985780777613
2026-09-29 20:36:20.825489408,-0.01675830078125,-0.3112255859375,10.20819921875,0.0,-0.0021305288720633907,0.0,358.90753694807887,0.512131776447901,13.475699332231425
2026-09-29 20:36:20.825489408,-0.055062988281249996,-0.28728515624999995,10.184258789062499,0.0,0.0,0.0,358.9063365653201,0.5115229406380747,13.475397636140212
2026-09-29 20:36:20.825489408,-0.03112255859375,-0.26095068359374995,10.16989453125,0.0,0.0,0.0,358.90582367147795,0.5113551651609051,13.475395822127316
2026-09-29 20:36:20.856745728,-0.035910644531249994,-0.30404345703124996,10.1651064453125,0.0,0.0,0.0,358.9048727567403,0.5110346302284523,13.47478544577878
2026-09-29 20:36:20.856745728,-0.06463916015625,-0.29925537109375,10.10525537109375,-0.0010652644360316954,0.0,0.0010652644360316954,358.903310090827,0.5108773751950845,13.475087516151932
2026-09-29 20:36:20.872424960,-0.07421533203125,-0.27531494140624996,10.17707666015625,0.0,0.0,0.0,358.9022523256635,0.5107801964334827,13.475391388202942
2026-09-29 20:36:20.872424960,-0.04069873046875,-0.29446728515625,10.227351562499999,0.0,0.0,0.0,358.9009111480378,0.5105528859075723,13.474786083664805
2026-09-29 20:36:20.919242240,-0.0622451171875,-0.28010302734375,10.16989453125,-0.0010652644360316954,0.0,0.0,358.8992025632363,0.5102748027113275,13.475089650088954
2026-09-29 20:36:20.924210176,-0.01915234375,-0.27531494140624996,10.22016943359375,0.0,-0.0031957933080950856,0.0,358.89847199113285,0.5088919400390212,13.475112048618378
2026-09-29 20:36:20.924210176,-0.0622451171875,-0.29925537109375,10.234533691406249,0.0,0.0,0.0,358.89768204269166,0.5081264667998662,13.474811290476358
2026-09-29 20:36:20.946349312,-0.01675830078125,-0.3208017578125,10.227351562499999,0.0,0.0,0.0010652644360316954,358.8961364521295,0.5073039430639921,13.474820240877197
2026-09-29 20:36:20.946349312,0.00718212890625,-0.2824970703125,10.162712402343749,0.0,0.0,0.0,358.8948731292326,0.5062385877801224,13.475134131118518
2026-09-29 20:36:20.950354944,-0.08618554687499999,-0.2824970703125,10.184258789062499,0.0010652644360316954,0.0,0.0,358.89464178112985,0.5055612455952924,13.474827039649039
2026-09-29 20:36:20.950354944,-0.01915234375,-0.26334472656249996,10.2034111328125,-0.0010652644360316954,-0.0010652644360316954,0.0,358.8936799848804,0.5052609098292875,13.474222428856452
2026-09-29 20:36:20.950354944,-0.01675830078125,-0.29446728515625,10.205805175781249,0.0,0.0,0.0,358.89265244051603,0.5050762647522791,13.473916517545758
2026-09-29 20:36:20.950354944,-0.06942724609374999,-0.28010302734375,10.205805175781249,0.0,0.0,0.0010652644360316954,358.89173357071127,0.504350367809252,13.474530050701203
2026-09-29 20:36:20.966019840,-0.04548681640625,-0.26334472656249996,10.189046874999999,0.0,-0.0010652644360316954,0.0,358.89084451863425,0.5037089369098648,13.474539363672038
2026-09-29 20:36:20.981637888,-0.0143642578125,-0.28728515624999995,10.22016943359375,0.0,0.0,0.0,358.8902857919448,0.50350790712889,13.474539829398124
2026-09-29 20:36:20.981637888,-0.05027490234375,-0.27052685546875,10.22016943359375,0.0,-0.0010652644360316954,0.0,358.8895478198316,0.5027546512295944,13.474239658933998
2026-09-29 20:36:21.013308160,-0.07182128906249999,-0.27531494140624996,10.21059326171875,0.0,-0.0010652644360316954,0.0,358.8885224114629,0.501907102014036,13.4736405618801
2026-09-29 20:36:21.013308160,0.011970214843749999,-0.2824970703125,10.21538134765625,0.0,0.0,0.0,358.8882949415789,0.5016459273241751,13.473952489552923
2026-09-29 20:36:21.060186368,-0.023940429687499997,-0.2729208984375,10.18186474609375,0.0,0.0,0.0010652644360316954,358.8876537816457,0.5007927935082047,13.47456858792803
2026-09-29 20:36:21.060186368,-0.009576171875,-0.24179833984375,10.1938349609375,0.0,0.0,0.0,358.8869355759626,0.5004297313606147,13.474872889784313
2026-09-29 20:36:21.075813120,-0.01915234375,-0.25137451171874997,10.1746826171875,0.0,0.0,0.0010652644360316954,358.8864438431671,0.5000277839778756,13.475179147387648
2026-09-29 20:36:21.075813120,-0.059851074218749994,-0.26573876953125,10.234533691406249,0.0,0.0,0.0,358.88571132893753,0.4989846382237698,13.475190049153648
2026-09-29 20:36:21.091437056,-0.07182128906249999,-0.25137451171874997,10.189046874999999,0.0,-0.0010652644360316954,0.0,358.8845478132817,0.498754949929376,13.474888917450977
2026-09-29 20:36:21.091437056,-0.05266894531249999,-0.258556640625,10.217775390624999,0.0,0.0,0.0010652644360316954,358.8843589017934,0.4984909524272769,13.475201124164027
2026-09-29 20:36:21.123017472,-0.01915234375,-0.296861328125,10.217775390624999,0.0,-0.0010652644360316954,0.0,358.88359062169275,0.49735052138731733,13.474912683161604
2026-09-29 20:36:21.123017472,-0.0047880859375,-0.2681328125,10.16989453125,0.0,0.0,0.0010652644360316954,358.88255404983835,0.4971648510336392,13.475210930384367
2026-09-29 20:36:21.154266112,-0.028728515625,-0.2824970703125,10.141166015624998,0.0,-0.0021305288720633907,0.0010652644360316954,358.8819264876149,0.49602025300064445,13.47583306662878
2026-09-29 20:36:21.154266112,-0.05266894531249999,-0.30404345703124996,10.19144091796875,0.0,0.0010652644360316954,0.0,358.88117460188084,0.4960393845788346,13.47552099115329
2026-09-29 20:36:21.201206272,-0.05745703125,-0.28967919921874996,10.212987304687498,0.0,-0.0010652644360316954,0.0,358.8802542127286,0.4953874783946138,13.475530338751579
2026-09-29 20:36:21.201206272,-0.011970214843749999,-0.27531494140624996,10.229745605468748,0.0,-0.0010652644360316954,0.0,358.8795504836522,0.49470912668316896,13.475541594299045
2026-09-29 20:36:21.201206272,-0.028728515625,-0.26095068359374995,10.22495751953125,0.0,0.0,0.0,358.8792458847144,0.49401254566725566,13.475242625912884
2026-09-29 20:36:21.201206272,-0.026334472656249996,-0.26573876953125,10.172288574218749,0.0,-0.0021305288720633907,0.0,358.87841330627225,0.4929107572717583,13.47465117754546
2026-09-29 20:36:21.201206272,-0.0143642578125,-0.29446728515625,10.22495751953125,0.0,0.0,0.0010652644360316954,358.87781972636145,0.4918737983928798,13.474968571319724
2026-09-29 20:36:21.201206272,-0.0622451171875,-0.27052685546875,10.1938349609375,0.0,0.0,0.0,358.8767808922673,0.490903314685278,13.475284815926207
2026-09-29 20:36:21.216832256,-0.026334472656249996,-0.26095068359374995,10.229745605468748,0.0,0.0,0.0,358.87609919537687,0.4905707926701689,13.47498528833338
2026-09-29 20:36:21.232457472,-0.023940429687499997,-0.27052685546875,10.244109863281249,0.0,0.0,0.0010652644360316954,358.875414037705,0.4901226994196423,13.475298560354922
2026-09-29 20:36:21.232457472,-0.047880859374999994,-0.2824970703125,10.201017089843749,0.0,0.0,0.0,358.87456286471905,0.489567508760075,13.475610372553962
2026-09-29 20:36:21.232457472,-0.055062988281249996,-0.23940429687499998,10.189046874999999,0.0,0.0,0.0010652644360316954,358.873942383402,0.4896949078829275,13.47621478875562
2026-09-29 20:36:21.232457472,0.0,-0.24658642578124998,10.22016943359375,0.0,0.0,0.0,358.87343906984233,0.4896364037666228,13.476215921433171
2026-09-29 20:36:21.232457472,-0.03112255859375,-0.258556640625,10.196229003906248,0.0,0.0,0.0,358.872837164365,0.4893038271650168,13.476210157367497
2026-09-29 20:36:21.232457472,-0.00718212890625,-0.296861328125,10.196229003906248,0.0,0.0,0.0021305288720633907,358.87266724343726,0.48906944482735215,13.477126827437173
2026-09-29 20:36:21.248082944,-0.028728515625,-0.25616259765625,10.179470703124998,-0.0010652644360316954,0.0,0.0,358.87104953419083,0.48871723460090555,13.47742278537883
2026-09-29 20:36:21.263707648,0.01915234375,-0.2729208984375,10.20819921875,0.0,-0.0021305288720633907,0.0,358.8696633589388,0.4878260534153474,13.477433606724402
2026-09-29 20:36:21.263707648,-0.043092773437499995,-0.30164941406249995,10.251291992187499,0.0,0.0,0.0,358.86876203490937,0.4869281354515839,13.477439989735295
2026-09-29 20:36:21.295374336,-0.067033203125,-0.26573876953125,10.251291992187499,0.0010652644360316954,0.0,0.0,358.86830480319736,0.4869454012681804,13.477737930782661
2026-09-29 20:36:21.295374336,-0.01915234375,-0.229828125,10.179470703124998,0.0,0.0,0.0,358.86782026779105,0.48666260282443874,13.477434201142586
2026-09-29 20:36:21.327037952,-0.04548681640625,-0.27770898437499997,10.222563476562499,0.0,0.0,0.0010652644360316954,358.8670855541556,0.4861165199675103,13.477741098699957
2026-09-29 20:36:21.327037952,-0.023940429687499997,-0.31601367187499996,10.157924316406248,0.0,0.0010652644360316954,0.0010652644360316954,358.8664409410182,0.48642300569578245,13.478339144211706
2026-09-29 20:36:21.327037952,-0.05027490234375,-0.28728515624999995,10.1938349609375,0.0,0.0,0.0010652644360316954,358.8655069551895,0.4858785805850989,13.478647689945467
2026-09-29 20:36:21.361024000,-0.01675830078125,-0.26573876953125,10.19144091796875,0.0,0.0,0.0,358.8644588742228,0.4855918219483029,13.478646740846916
2026-09-29 20:36:21.361024000,-0.06463916015625,-0.28010302734375,10.217775390624999,0.0,0.0,0.0,358.86344149639285,0.4858482259125526,13.4786339999507
2026-09-29 20:36:21.361024000,-0.043092773437499995,-0.29207324218749997,10.18186474609375,0.0,0.0,0.0010652644360316954,358.8629501390799,0.4851469066673,13.479261035028552
2026-09-29 20:36:21.361024000,-0.01675830078125,-0.28489111328125,10.17707666015625,0.0,0.0,0.0,358.8622762770189,0.48500091973918935,13.478955679247333
2026-09-29 20:36:21.361024000,-0.0143642578125,-0.2729208984375,10.18186474609375,0.0,0.0,0.0010652644360316954,358.86106606723973,0.4849872092479247,13.479246356129627
2026-09-29 20:36:21.374033920,-0.009576171875,-0.25616259765625,10.20819921875,0.0,0.0,0.0,358.8601680633267,0.485094784943458,13.478929422817219
2026-09-29 20:36:21.405289728,-0.05745703125,-0.23222216796874998,10.22016943359375,0.0,0.0,-0.0010652644360316954,358.8596559651314,0.48421424387474765,13.478326280525133
2026-09-29 20:36:21.420914176,-0.0383046875,-0.28010302734375,10.15313623046875,0.0,0.0,0.0010652644360316954,358.8597909236848,0.483650183384166,13.47895267462489
2026-09-29 20:36:21.452207872,-0.05266894531249999,-0.27531494140624996,10.1651064453125,0.0,0.0,0.0,358.8589845302312,0.48283477927017016,13.479268525113861
2026-09-29 20:36:21.452207872,-0.028728515625,-0.258556640625,10.172288574218749,0.0,0.0,0.0,358.85803171459673,0.48241396711045265,13.479579672023222
2026-09-29 20:36:21.483412992,-0.04548681640625,-0.29446728515625,10.22016943359375,0.0,0.0,0.0,358.8577239496565,0.48167773718655527,13.479280812163228
2026-09-29 20:36:21.483412992,-0.01675830078125,-0.27770898437499997,10.162712402343749,0.0,0.0,0.0010652644360316954,358.8573333024128,0.4815302998583706,13.479890598343323
2026-09-29 20:36:21.483412992,-0.055062988281249996,-0.3064375,10.162712402343749,0.0,0.0,0.0,358.8569718469222,0.48118202327017157,13.480195444076214
2026-09-29 20:36:21.499037696,-0.0383046875,-0.24898046875,10.17707666015625,0.0,0.0,0.0010652644360316954,358.85614769929356,0.48070150294455927,13.480505097338375
2026-09-29 20:36:21.515156992,-0.021546386718749998,-0.28728515624999995,10.198623046875,-0.0010652644360316954,0.0,0.0,358.8550310249209,0.4805864603114954,13.480506163453182
2026-09-29 20:36:21.515156992,-0.023940429687499997,-0.28728515624999995,10.198623046875,-0.0010652644360316954,0.0,0.0,358.8535890090975,0.48063565800261654,13.480193337422548
2026-09-29 20:36:21.515156992,-0.059851074218749994,-0.30404345703124996,10.2034111328125,0.0,-0.0010652644360316954,0.0,358.85229039356005,0.48001974169783235,13.480504162381267
2026-09-29 20:36:21.562036480,-0.067033203125,-0.26334472656249996,10.19144091796875,0.0,-0.0010652644360316954,0.0,358.85115291519395,0.4793181071059104,13.480514741704823
2026-09-29 20:36:21.562036480,-0.0047880859375,-0.258556640625,10.2417158203125,0.0,0.0,0.0010652644360316954,358.8512380419277,0.47941951174981146,13.480823330298705
2026-09-29 20:36:21.562036480,-0.059851074218749994,-0.26095068359374995,10.179470703124998,0.0,0.0,0.0,358.8506888673068,0.478731682960707,13.480830177639568
2026-09-29 20:36:21.608909312,-0.047880859374999994,-0.26095068359374995,10.172288574218749,0.0,-0.0010652644360316954,0.0,358.8501347702304,0.47808662935312674,13.480843159950352
2026-09-29 20:36:21.640158464,-0.035910644531249994,-0.27052685546875,10.20819921875,0.0,0.0,0.0,358.84972553826776,0.4780403513624798,13.480845067972485
2026-09-29 20:36:21.640158464,-0.043092773437499995,-0.28489111328125,10.155530273437499,0.0,0.0,0.0010652644360316954,358.8489105132321,0.47814589166578,13.481145135548422
2026-09-29 20:36:21.640158464,-0.023940429687499997,-0.27531494140624996,10.172288574218749,0.0,0.0,0.0,358.8484108410091,0.47773341649767825,13.48053606873877
2026-09-29 20:36:21.640158464,-0.009576171875,-0.258556640625,10.145954101562499,0.0,-0.0010652644360316954,0.0010652644360316954,358.8472736792219,0.47721193583306726,13.48054314432755
2026-09-29 20:36:21.640158464,-0.0383046875,-0.2681328125,10.179470703124998,0.0,-0.0010652644360316954,0.0,358.84678735190477,0.4762946472385417,13.480550475900769
2026-09-29 20:36:21.640158464,-0.047880859374999994,-0.28728515624999995,10.20819921875,0.0,0.0,0.0,358.8457230319257,0.47582753822873974,13.480558138230306
2026-09-29 20:36:21.649083392,-0.055062988281249996,-0.27052685546875,10.162712402343749,0.0,0.0,0.0,358.84473327850344,0.47555787180362913,13.480557799366393
2026-09-29 20:36:21.650089216,-0.05745703125,-0.26095068359374995,10.196229003906248,0.0,0.0,0.0,358.8440128457833,0.4749017708047437,13.48025813585245
2026-09-29 20:36:21.651108608,-0.028728515625,-0.28010302734375,10.17707666015625,0.0,0.0,0.0010652644360316954,358.843898695755,0.47435769532599925,13.480876475377658
2026-09-29 20:36:21.652126208,-0.021546386718749998,-0.28967919921874996,10.167500488281249,0.0,0.0,0.0010652644360316954,358.84323895248144,0.4741929248508199,13.481181436813701
2026-09-29 20:36:21.653262080,-0.0383046875,-0.25616259765625,10.19144091796875,0.0,0.0,0.0010652644360316954,358.84230706951394,0.4738748501375244,13.481791765527142
2026-09-29 20:36:21.654292480,-0.023940429687499997,-0.26095068359374995,10.21059326171875,0.0,-0.0010652644360316954,0.0010652644360316954,358.84137567089465,0.4728947595143391,13.482416955559014
2026-09-29 20:36:21.659610112,-0.06463916015625,-0.29446728515625,10.22495751953125,0.0,0.0,0.0,358.84072131711196,0.47242123802611624,13.482416909668494
2026-09-29 20:36:21.686579456,-0.05266894531249999,-0.2681328125,10.172288574218749,0.0,0.0,0.0,358.83969130145135,0.4723627023269593,13.482721401308524
2026-09-29 20:36:21.702191360,-0.021546386718749998,-0.24898046875,10.17707666015625,0.0,0.0,0.0021305288720633907,358.8390775338753,0.4717132978391605,13.483643131581982
2026-09-29 20:36:21.702191360,-0.0383046875,-0.27770898437499997,10.246503906249998,0.0,0.0,0.0,358.83871256001856,0.47126993084202223,13.483035374577634
2026-09-29 20:36:21.733529600,-0.035910644531249994,-0.28728515624999995,10.155530273437499,0.0,0.0010652644360316954,0.0010652644360316954,358.8374844247112,0.4713236751551717,13.483639674060363
2026-09-29 20:36:21.749112320,-0.03112255859375,-0.2824970703125,10.1938349609375,0.0,0.0,0.0,358.8367839884909,0.4717010533751742,13.483626894037865
2026-09-29 20:36:21.749112320,-0.047880859374999994,-0.29446728515625,10.16989453125,0.0,0.0,0.0,358.83591080832036,0.47196558220834617,13.48331001519657
2026-09-29 20:36:21.764677888,-0.011970214843749999,-0.25616259765625,10.14834814453125,0.0,0.0,0.0010652644360316954,358.8348571721665,0.47231552055597453,13.483913128929666
2026-09-29 20:36:21.764677888,-0.043092773437499995,-0.27770898437499997,10.198623046875,0.0,0.0,0.0,358.83378004093606,0.47202634259246024,13.483600798149872
2026-09-29 20:36:21.764677888,-0.05266894531249999,-0.28728515624999995,10.21538134765625,0.0,0.0,0.0,358.83326200216396,0.47176509303208564,13.48360170694583
2026-09-29 20:36:21.764677888,-0.011970214843749999,-0.23940429687499998,10.179470703124998,0.0,0.0,0.0,358.83238427340206,0.47175113963945636,13.483907409260146
2026-09-29 20:36:21.764677888,-0.028728515625,-0.2824970703125,10.201017089843749,0.0,-0.0010652644360316954,0.0010652644360316954,358.83119359961984,0.4708682817360619,13.484530584486334
2026-09-29 20:36:21.811647488,-0.0335166015625,-0.23701025390624997,10.21538134765625,-0.0010652644360316954,-0.0010652644360316954,0.0,358.8299511838617,0.47062240718600107,13.484530665125998
2026-09-29 20:36:21.811647488,-0.05745703125,-0.25137451171874997,10.234533691406249,0.0,-0.0010652644360316954,0.0010652644360316954,358.8287557798315,0.4699789674400004,13.485147557959422
2026-09-29 20:36:21.827180032,-0.05745703125,-0.26334472656249996,10.212987304687498,0.0,0.0,0.0010652644360316954,358.82809133316323,0.46946251194709965,13.48546126275278
2026-09-29 20:36:21.827180032,-0.01915234375,-0.27770898437499997,10.18665283203125,0.0,0.0,0.0,358.8276126944523,0.4692911440805847,13.485157512818729
2026-09-29 20:36:21.889675264,-0.011970214843749999,-0.2824970703125,10.21538134765625,0.0,0.0,0.0,358.8266753687421,0.4685940534578243,13.484858748809918
2026-09-29 20:36:21.920921088,-0.06463916015625,-0.2537685546875,10.167500488281249,0.0,0.0,0.0021305288720633907,358.825464441965,0.4684169963532258,13.48546915523525
2026-09-29 20:36:21.920921088,-0.047880859374999994,-0.27770898437499997,10.198623046875,0.0,0.0,0.0,358.8249140278302,0.46864313403179925,13.485463642293135
2026-09-29 20:36:21.920921088,-0.067033203125,-0.2824970703125,10.236927734375,0.0,0.0,0.0,358.82464261495863,0.4684646512764416,13.48515906108054
2026-09-29 20:36:21.920921088,-0.03112255859375,-0.25137451171874997,10.20819921875,0.0,0.0,0.0,358.82396316223753,0.46821356392956326,13.485158714143553
2026-09-29 20:36:21.936546816,-0.01675830078125,-0.2537685546875,10.217775390624999,0.0,0.0,0.0,358.8232803096434,0.4675862322574648,13.484862066119954
2026-09-29 20:36:21.936546816,-0.035910644531249994,-0.23940429687499998,10.2034111328125,0.0,-0.0010652644360316954,0.0,358.822978956079,0.466645555427303,13.48487740078814
2026-09-29 20:36:21.936546816,-0.043092773437499995,-0.29207324218749997,10.16989453125,0.0,-0.0010652644360316954,0.0010652644360316954,358.82226724736097,0.4658800108200923,13.485502120225918
2026-09-29 20:36:21.936546816,0.00239404296875,-0.28967919921874996,10.150742187499999,0.0,0.0,0.0,358.82095015455786,0.4656289396124784,13.485196584354105
2026-09-29 20:36:21.936546816,-0.0383046875,-0.25137451171874997,10.18665283203125,0.0,0.0,0.0,358.8200177520089,0.46530002402839843,13.48489160741929
2026-09-29 20:36:21.936546816,-0.023940429687499997,-0.2729208984375,10.21538134765625,0.0,0.0,0.0,358.81924596582536,0.46547722341509506,13.484886708691583
2026-09-29 20:36:21.936546816,-0.059851074218749994,-0.2824970703125,10.217775390624999,0.0,0.0,0.0,358.8190221570047,0.4646918683424876,13.484588889228752
2026-09-29 20:36:21.936546816,-0.06463916015625,-0.28728515624999995,10.133983886718749,0.0,0.0,0.0,358.81836465236364,0.46425802358193463,13.484595057970788
2026-09-29 20:36:21.943113984,-0.0047880859375,-0.25616259765625,10.184258789062499,0.0,0.0,0.0,358.81747400544197,0.46395478576889587,13.484906976085872
2026-09-29 20:36:21.968293888,-0.043092773437499995,-0.258556640625,10.22495751953125,0.0,0.0,0.0021305288720633907,358.8165956633985,0.4632390858501206,13.485831600507407
2026-09-29 20:36:21.999542272,-0.03112255859375,-0.26573876953125,10.22495751953125,0.0,0.0,0.0,358.8159365770668,0.4626972724355672,13.485535238636999
2026-09-29 20:36:22.030791424,-0.00718212890625,-0.29207324218749997,10.196229003906248,0.0,0.0,0.0,358.8155434530669,0.46248814786362147,13.485232157550398
2026-09-29 20:36:22.030791424,-0.055062988281249996,-0.27531494140624996,10.201017089843749,0.0,0.0,0.0,358.8153348806797,0.46183719761056197,13.485237016523051
2026-09-29 20:36:22.060330240,-0.01915234375,-0.25616259765625,10.2321396484375,0.0,0.0,0.0,358.81505702379565,0.4611682716262359,13.484938795216847
2026-09-29 20:36:22.062361088,-0.059851074218749994,-0.2537685546875,10.196229003906248,0.0,0.0,0.0,358.81403049647514,0.460836704334178,13.484940707290155
2026-09-29 20:36:22.063550976,-0.0335166015625,-0.296861328125,10.21059326171875,0.0,-0.0010652644360316954,0.0,358.8133631394975,0.46065697189379873,13.484635389190188
2026-09-29 20:36:22.063550976,-0.08379150390625,-0.27052685546875,10.205805175781249,0.0,0.0,0.0,358.8127798563393,0.45992077180386487,13.484337110025669
2026-09-29 20:36:22.063550976,-0.023940429687499997,-0.28728515624999995,10.150742187499999,0.0,-0.0010652644360316954,0.0,358.81195765498717,0.4600839446940663,13.483728019879278
2026-09-29 20:36:22.063550976,0.0047880859375,-0.25616259765625,10.22495751953125,0.0,0.0,0.0010652644360316954,358.811052897034,0.4590683950484403,13.484351370379432
2026-09-29 20:36:22.063550976,-0.0335166015625,-0.26573876953125,10.2321396484375,-0.0010652644360316954,-0.0010652644360316954,0.0010652644360316954,358.8100427018206,0.45790995625352154,13.48467118213627
2026-09-29 20:36:22.063550976,-0.047880859374999994,-0.2681328125,10.263262207031248,0.0,0.0,0.0,358.8091834564861,0.45807748389092645,13.484970742797397
2026-09-29 20:36:22.078061568,0.0143642578125,-0.27052685546875,10.198623046875,0.0,0.0,0.0010652644360316954,358.80806195857207,0.4578938166112027,13.485582169010081
2026-09-29 20:36:22.093722112,-0.035910644531249994,-0.28728515624999995,10.21538134765625,0.0,0.0,0.0,358.8067762589411,0.4571899264434307,13.485893405652439
2026-09-29 20:36:22.093722112,-0.021546386718749998,-0.30404345703124996,10.157924316406248,0.0,0.0,0.0,358.8059917167677,0.4570644578721641,13.485894748567071
2026-09-29 20:36:22.124943616,-0.05027490234375,-0.27052685546875,10.2321396484375,0.0,0.0,0.0010652644360316954,358.80480552002825,0.45649122102374,13.48590170106759
2026-09-29 20:36:22.124943616,-0.021546386718749998,-0.31601367187499996,10.21059326171875,0.0,0.0,0.0010652644360316954,358.80384326835406,0.4567838969652008,13.486200397025781
2026-09-29 20:36:22.124943616,-0.011970214843749999,-0.2537685546875,10.172288574218749,0.0,0.0,0.0,358.8027272768323,0.4569255893772885,13.48558256466668
2026-09-29 20:36:22.156192000,-0.0335166015625,-0.29207324218749997,10.145954101562499,0.0,-0.0010652644360316954,0.0,358.80241163915883,0.45636440293676883,13.48559149279468
2026-09-29 20:36:22.156192000,-0.04069873046875,-0.26573876953125,10.21059326171875,-0.0010652644360316954,-0.0010652644360316954,0.0,358.8015874026861,0.45609753233399297,13.485598880627219
2026-09-29 20:36:22.156192000,-0.028728515625,-0.2681328125,10.1651064453125,0.0,0.0,0.0,358.8009706440907,0.4563988128610285,13.48559514191962
2026-09-29 20:36:22.187697152,-0.06463916015625,-0.296861328125,10.18186474609375,0.0,0.0,0.0,358.8002063289924,0.456230979463744,13.485901769255236
2026-09-29 20:36:22.203923200,-0.023940429687499997,-0.28010302734375,10.212987304687498,0.0,0.0,0.0,358.79918255347366,0.45519322918869615,13.485913965495829
2026-09-29 20:36:22.235585024,-0.043092773437499995,-0.258556640625,10.18665283203125,0.0,0.0,0.0010652644360316954,358.7982423750289,0.4552380614764052,13.486212837955772
2026-09-29 20:36:22.235585024,-0.05027490234375,-0.3064375,10.184258789062499,0.0,0.0,0.0,358.79815554806385,0.4543978700101444,13.486532792882924
2026-09-29 20:36:22.235585024,-0.01675830078125,-0.22743408203124998,10.19144091796875,0.0,0.0,0.0,358.79709034842807,0.454346630355046,13.486531800596529
2026-09-29 20:36:22.251211008,0.0,-0.2729208984375,10.198623046875,0.0,0.0,0.0,358.7971009005394,0.45386457205166875,13.48622950923297
2026-09-29 20:36:22.251211008,0.0,-0.29207324218749997,10.16989453125,0.0,0.0,0.0,358.7960370164664,0.4530393272570842,13.48592989542864
2026-09-29 20:36:22.251211008,-0.05027490234375,-0.29446728515625,10.25368603515625,0.0,0.0,0.0,358.79545288028356,0.45270000419072254,13.485928075661324
2026-09-29 20:36:22.298347008,0.0,-0.26573876953125,10.217775390624999,0.0,0.0,0.0,358.79447842117855,0.45227728469621664,13.485324181003868
2026-09-29 20:36:22.298347008,-0.028728515625,-0.296861328125,10.172288574218749,0.0,-0.0010652644360316954,0.0,358.79366282256234,0.4512673526560718,13.48503315791369
2026-09-29 20:36:22.298347008,-0.009576171875,-0.2681328125,10.160318359375,0.0,-0.0010652644360316954,0.0010652644360316954,358.79255758918083,0.45013397241666975,13.485051264734613
2026-09-29 20:36:22.298347008,-0.04548681640625,-0.26573876953125,10.222563476562499,0.0,0.0,0.0,358.7923623360804,0.44944289318291114,13.485058778290087
2026-09-29 20:36:22.329602816,-0.04548681640625,-0.26334472656249996,10.22495751953125,0.0,-0.0010652644360316954,0.0010652644360316954,358.7915495769137,0.4488664916826491,13.4856766140065
2026-09-29 20:36:22.329602816,-0.00718212890625,-0.28967919921874996,10.11961962890625,0.0,0.0,0.0,358.79068284119575,0.4488054095293974,13.48537227471636
2026-09-29 20:36:22.329602816,-0.023940429687499997,-0.28489111328125,10.179470703124998,0.0,0.0,0.0,358.7902828700104,0.4484678848285252,13.48567693333095
2026-09-29 20:36:22.329602816,-0.023940429687499997,-0.26573876953125,10.212987304687498,0.0,0.0,0.0,358.7898172891722,0.44805661085887355,13.485684793982834
2026-09-29 20:36:22.329602816,-0.059851074218749994,-0.26334472656249996,10.21059326171875,0.0,0.0,0.0,358.78964888633067,0.44735953430165293,13.485387565850953
2026-09-29 20:36:22.329602816,-0.047880859374999994,-0.3208017578125,10.20819921875,0.0,0.0,0.0010652644360316954,358.78936499927556,0.4476833576804007,13.485686827511007
2026-09-29 20:36:22.345228288,-0.043092773437499995,-0.26334472656249996,10.229745605468748,0.0,-0.0010652644360316954,0.0,358.78815472347975,0.44674741891376485,13.486011734771079
2026-09-29 20:36:22.376481280,-0.043092773437499995,-0.32319580078125,10.20819921875,0.0,0.0,0.0,358.7875945318346,0.4467683684590884,13.48631762316908
2026-09-29 20:36:22.407724288,-0.043092773437499995,-0.28728515624999995,10.17707666015625,0.0,0.0,0.0,358.78664994347037,0.4465632275331529,13.486012628453064
2026-09-29 20:36:22.407724288,-0.011970214843749999,-0.27770898437499997,10.2321396484375,0.0,-0.0010652644360316954,0.0010652644360316954,358.78578879618726,0.4458152816996088,13.486331421865168
2026-09-29 20:36:22.438973440,-0.035910644531249994,-0.24898046875,10.21059326171875,-0.0010652644360316954,-0.0010652644360316954,0.0,358.78520599407125,0.4449694851707567,13.48634727604781
2026-09-29 20:36:22.438973440,-0.03112255859375,-0.26095068359374995,10.157924316406248,0.0,0.0,0.0,358.78440969253825,0.44457718662974904,13.486350881075982
2026-09-29 20:36:22.438973440,-0.047880859374999994,-0.2824970703125,10.19144091796875,0.0,-0.0010652644360316954,0.0,358.7836304656408,0.4436784697903865,13.486060165087498
2026-09-29 20:36:22.438973440,-0.028728515625,-0.258556640625,10.196229003906248,0.0,-0.0010652644360316954,0.0,358.7830927445229,0.4434359770223261,13.485457435465628
2026-09-29 20:36:22.472200960,-0.04069873046875,-0.24179833984375,10.196229003906248,0.0,0.0,0.0010652644360316954,358.78295221695845,0.44318005813804223,13.486069363956734
2026-09-29 20:36:22.472200960,-0.0383046875,-0.28728515624999995,10.13158984375,0.0,0.0,0.0,358.7832995918409,0.44234063683575464,13.48608535906274
2026-09-29 20:36:22.472200960,-0.0143642578125,-0.2824970703125,10.150742187499999,0.0,0.0,0.0,358.78244530291107,0.4423750335796215,13.486384885276857
2026-09-29 20:36:22.472200960,-0.07421533203125,-0.2729208984375,10.20819921875,0.0,0.0,0.0,358.7822096540788,0.44220076103814965,13.486385722738037
2026-09-29 20:36:22.472200960,-0.0335166015625,-0.2729208984375,10.18665283203125,0.0,-0.0010652644360316954,0.0,358.7815671557814,0.44174441080683335,13.485791145659812
2026-09-29 20:36:22.472200960,-0.01675830078125,-0.26334472656249996,10.157924316406248,0.0,0.0,0.0,358.780789782039,0.4416768800324007,13.485792507178918
