Timestamp,ax,ay,az,gx,gy,gz,roll,pitch,yaw
2026-09-24 19:44:40.376759808,1.3741806640624998,5.618818847656249,8.0822890625,-0.08735168375459901,0.035153726389045944,-0.030892668644919165,37.45622813764791,350.5832433545701,228.09565755648322
2026-09-24 19:44:40.379758080,1.3837568359374999,5.57572607421875,8.1158056640625,-0.08628641931856731,0.02663161090079238,-0.02876213977285577,37.401031555944634,350.609780468648,228.09337605256337
2026-09-24 19:44:40.748473856,1.4364257812499999,5.566149902343749,8.06313671875,-0.08415589044650393,0.01810949541253882,-0.02663161090079238,37.34701653898522,350.6316571419271,228.08886994382357
2026-09-24 19:44:40.748473856,1.4579721679687498,5.479964355468749,8.06313671875,-0.08202536157444054,0.01597896654047543,-0.024501082028728992,37.29330324330983,350.6501098526918,228.08450332268268
2026-09-24 19:44:40.748473856,1.4483959960937498,5.4464477539062495,8.06313671875,-0.07243798165015528,0.019174759848570515,-0.019174759848570515,37.24393231415741,350.6675641170073,228.08285449913276
2026-09-24 19:44:40.748473856,1.4843066406249998,5.444053710937499,8.03680224609375,-0.06072007285380663,0.022370553156665602,-0.014913702104443734,37.2004626286334,350.6851325093199,228.0838630722274
2026-09-24 19:44:40.748473856,1.42924365234375,5.4296894531249995,8.077500976562499,-0.043675841877299504,0.022370553156665602,-0.009587379924285258,37.165559265278574,350.70104079448106,228.08813981989837
2026-09-24 19:44:40.748473856,1.4579721679687498,5.4656000976562495,8.051166503906249,-0.022370553156665602,0.017044230976507126,-0.0031957933080950856,37.14165758878244,350.7138494453553,228.09382183339414
2026-09-24 19:44:40.748473856,1.42445556640625,5.515874999999999,8.04637841796875,0.0,0.012783173232380343,0.0021305288720633907,37.1307442556292,350.7220613275918,228.1007164619703
2026-09-24 19:44:40.763478528,1.42924365234375,5.618818847656249,8.034408203124999,0.01597896654047543,0.006391586616190171,0.007456851052221867,37.131897947453844,350.7255487956969,228.10794463145956
2026-09-24 19:44:40.763478528,1.4627602539062499,5.688246093749999,8.03680224609375,0.03302319751698255,0.0,0.008522115488253563,37.14426380004108,350.7249900070497,228.11334522323054
2026-09-24 19:44:40.763478528,1.47233642578125,5.7313388671875,7.9817392578124995,0.044741106313331204,-0.004261057744126781,0.009587379924285258,37.16527617041959,350.72100977456984,228.117168033453
2026-09-24 19:44:40.763478528,1.5369755859374998,5.82470654296875,7.936252441406249,0.054328486237616457,-0.011717908796348648,0.007456851052221867,37.19331064101394,350.7142203410888,228.1178872479718
2026-09-24 19:44:40.763478528,1.5680981445312498,5.8749814453125,7.93146435546875,0.06072007285380663,-0.01384843766841204,0.004261057744126781,37.22650189421044,350.70632195234515,228.11635853734563
2026-09-24 19:44:40.763478528,1.5848564453124998,5.946802734375,7.833308593749999,0.06391586616190172,-0.017044230976507126,0.0010652644360316954,37.26299007953023,350.69816292537564,228.11180774944648
2026-09-24 19:44:40.779109888,1.6040087890624999,6.0641108398437495,7.883583496093749,0.05645901510967985,-0.01597896654047543,-0.0010652644360316954,37.29908458248964,350.6912027307505,228.10558159636244
2026-09-24 19:44:40.779109888,1.5992207031249999,6.119173828125,7.881189453125,0.044741106313331204,-0.01597896654047543,-0.0031957933080950856,37.32958539871384,350.68466152899373,228.097839290123
2026-09-24 19:44:40.779109888,1.6016147460937498,6.131144042968749,7.883583496093749,0.025566346464760685,-0.01597896654047543,-0.006391586616190171,37.35002937045345,350.6797231593765,228.08921044557198
2026-09-24 19:44:40.779109888,1.5848564453124998,6.128749999999999,7.921888183593749,0.0031957933080950856,-0.01384843766841204,-0.012783173232380343,37.35841287830568,350.6768260541191,228.07829592991303
2026-09-24 19:44:40.779109888,1.5848564453124998,6.145508300781249,7.921888183593749,-0.019174759848570515,-0.019174759848570515,-0.019174759848570515,37.353461626229226,350.6752058364305,228.06395254743515
2026-09-24 19:44:40.779109888,1.5896445312499998,6.073687011718749,7.941040527343749,-0.04048004856920442,-0.022370553156665602,-0.02663161090079238,37.336679208473214,350.6746992393361,228.0450514615672
2026-09-24 19:44:40.779109888,1.58246240234375,6.025806152343749,7.943434570312499,-0.059654808417774936,-0.02663161090079238,-0.03621899082507764,37.30810891239043,350.6755234611981,228.02017843724556
2026-09-24 19:44:40.779109888,1.6327373046874998,5.98271337890625,7.962586914062499,-0.07456851052221868,-0.029827404208887468,-0.044741106313331204,37.271538859269505,350.6778938384617,227.99023195442481
2026-09-24 19:44:40.779109888,1.6710419921875,5.884557617187499,8.0583486328125,-0.08202536157444054,-0.030892668644919165,-0.05219795736555307,37.22974505904554,350.68159050741275,227.9563869006429
2026-09-24 19:44:40.779109888,1.6471015624999998,5.80316015625,8.0200439453125,-0.08309062601047223,-0.02663161090079238,-0.05752427954571154,37.18539326764853,350.68815090384186,227.92074673832087
2026-09-24 19:44:40.779109888,1.6135849609375,5.75288525390625,8.005679687499999,-0.08202536157444054,-0.02769687533682408,-0.06285060172587002,37.14140466862705,350.69683430443973,227.88287373491787
2026-09-24 19:44:40.779109888,1.5992207031249999,5.740915039062499,7.98413330078125,-0.08415589044650393,-0.02876213977285577,-0.0692421883420602,37.09689291675148,350.7075542569257,227.84215623402622
2026-09-24 19:44:40.779109888,1.6231611328125,5.736126953125,8.01286181640625,-0.08628641931856731,-0.025566346464760685,-0.07776430383031376,37.051734646328136,350.72131471772684,227.7985174957816
2026-09-24 19:44:40.779109888,1.6518896484374999,5.709792480468749,8.017649902343749,-0.08841694819063071,-0.025566346464760685,-0.08628641931856731,37.005748598295646,350.738387360787,227.75107913691653
2026-09-24 19:44:40.779109888,1.6590717773437498,5.688246093749999,7.9817392578124995,-0.0905474770626941,-0.02769687533682408,-0.09693906367888427,36.95905475180261,350.75821390627146,227.69837915150575
2026-09-24 19:44:40.779109888,1.6638598632812498,5.64275927734375,7.9984975585937494,-0.09267800593475749,-0.02876213977285577,-0.111852765783328,36.912192396559334,350.7822171638294,227.63863025368624
2026-09-24 19:44:40.779109888,1.675830078125,5.64754736328125,8.022437988281249,-0.0905474770626941,-0.02876213977285577,-0.1320927900679302,36.86737569917532,350.8120725882172,227.57030696985203
2026-09-24 19:44:40.779109888,1.7404692382812499,5.657123535156249,8.0583486328125,-0.0905474770626941,-0.02769687533682408,-0.1576591365326909,36.82472061266565,350.8497359156184,227.49128442960935
2026-09-24 19:44:40.779109888,1.7668037109374999,5.6930341796874995,7.9649809570312495,-0.08841694819063071,-0.02663161090079238,-0.18855180517761005,36.78535982438767,350.8972959967984,227.39828352831367
2026-09-24 19:44:40.779109888,1.7644096679687498,5.71458056640625,7.996103515624999,-0.09267800593475749,-0.025566346464760685,-0.2269013248747511,36.747727360089826,350.95734317907755,227.28867892413288
2026-09-24 19:44:40.779109888,1.7380751953124998,5.75288525390625,8.034408203124999,-0.09906959255094766,-0.02024002428460221,-0.272707695624114,36.70955455527277,351.0351108093366,227.1601003114399
2026-09-24 19:44:40.779109888,1.78116796875,5.7504912109375,7.976951171874999,-0.11078750134729631,-0.01597896654047543,-0.32703618186173045,36.668779271798805,351.13239909740906,227.00844227209254
2026-09-24 19:44:40.779109888,1.7524394531249998,5.80555419921875,7.967375,-0.12250541014364495,-0.014913702104443734,-0.3877562547155371,36.62580637983179,351.2500749843191,226.83045732741417
2026-09-24 19:44:40.779109888,1.7883500976562499,5.7887958984375,7.98413330078125,-0.13954964112015208,-0.01384843766841204,-0.4569984430575973,36.578474713075025,351.39136101470046,226.62180915555834
2026-09-24 19:44:40.779109888,1.771591796875,5.87258740234375,7.972163085937499,-0.1587244009687226,-0.012783173232380343,-0.5358280113239428,36.52510879650712,351.5584917918962,226.37761325957155
2026-09-24 19:44:40.779109888,1.7524394531249998,5.920468261718749,7.919494140624999,-0.18855180517761005,-0.004261057744126781,-0.6263754883866368,36.462590548844986,351.7579547821668,226.09450742360616
2026-09-24 19:44:40.779109888,1.6854062499999998,5.8558291015625,7.89794775390625,-0.22050973825856093,0.0,-0.7243798165015528,36.38650269134187,351.9923999329029,225.76819861519905
2026-09-24 19:44:40.779109888,1.6806181640624998,5.80555419921875,7.909917968749999,-0.25033714246744837,0.008522115488253563,-0.8245146734885321,36.29676706843252,352.2638046199111,225.39835214483563
2026-09-24 19:44:40.779109888,1.5848564453124998,5.793583984374999,7.976951171874999,-0.2748382244961774,0.022370553156665602,-0.9246495304755115,36.195946841912665,352.5743864436182,224.98510504700943
2026-09-24 19:44:40.779109888,1.52979345703125,5.76724951171875,7.9458286132812495,-0.2940129843447479,0.044741106313331204,-1.017327536410269,36.08521343557503,352.9261168540672,224.5349066168647
2026-09-24 19:44:40.779109888,1.3646044921874998,5.7840078125,7.94822265625,-0.2982740420888747,0.0692421883420602,-1.0982876335486778,35.971310831935284,353.3162254777587,224.05326164165197
2026-09-24 19:44:40.779109888,1.1587167968749998,5.80555419921875,8.0583486328125,-0.30360036426903314,0.0916127414987258,-1.170725615198833,35.85409840821043,353.74273820783424,223.54491382301896
2026-09-24 19:44:40.779109888,0.94085888671875,5.7504912109375,8.127775878906249,-0.3078614220131599,0.09693906367888427,-1.2420983324129566,35.73284110687699,354.19836537659484,223.0060402436025
2026-09-24 19:44:40.779109888,0.66793798828125,5.635577148437499,8.24268994140625,-0.3057308931410965,0.08415589044650393,-1.3134710496270803,35.61043789122465,354.6749445177359,222.4305652165933
2026-09-24 19:44:40.779109888,0.45965625,5.57572607421875,8.264236328125,-0.29933930652490637,0.049002164057457984,-1.3752563869169185,35.488062977670594,355.1596102770028,221.81415598495806
2026-09-24 19:44:40.779109888,0.32558984375,5.460812011718749,8.28578271484375,-0.2897519266006211,0.007456851052221867,-1.4317154020265985,35.36932424631412,355.64398649552163,221.15674030913115
2026-09-24 19:44:40.779109888,0.30164941406249995,5.475176269531249,8.2307197265625,-0.2748382244961774,-0.03408846195301425,-1.4849786238281832,35.255347389374776,356.12530129289917,220.45916617357216
2026-09-24 19:44:40.779109888,0.31840771484374997,5.5206630859375,8.283388671874999,-0.25779399351967025,-0.06711165946999681,-1.5329155234496095,35.14849475355977,356.6039117539529,219.72594977298817
2026-09-24 19:44:40.779109888,0.29207324218749997,5.59487841796875,8.21874951171875,-0.25033714246744837,-0.08735168375459901,-1.5787218941989725,35.04374706440003,357.0841375087828,218.96256382802878
2026-09-24 19:44:40.779109888,0.21306982421874998,5.654729492187499,8.29057080078125,-0.2492718780314167,-0.10226538585904274,-1.6170714138961135,34.93645442347843,357.56867735921907,218.17446035076804
2026-09-24 19:44:40.779109888,0.0335166015625,5.652335449218749,8.29296484375,-0.2545982002115752,-0.11504855909142309,-1.6564861980292862,34.82086110187293,358.05826737375514,217.36345249679385
2026-09-24 19:44:40.779109888,-0.11252001953124999,5.5709379882812495,8.32887548828125,-0.262055051263797,-0.1352885833760253,-1.688444131110237,34.69425700941717,358.54996340644067,216.5294361131206
2026-09-24 19:44:40.779109888,-0.2154638671875,5.5206630859375,8.35281591796875,-0.2567287290836386,-0.1629854587128494,-1.7086841553948393,34.56165296190193,359.03587991271934,215.67493503787338
2026-09-24 19:44:40.779109888,-0.24898046875,5.43687158203125,8.304935058593749,-0.24288029141522652,-0.18961706961364175,-1.7140104775749978,34.428335077465526,359.50989847782046,214.80633753664296
2026-09-24 19:44:40.779109888,-0.24419238281249997,5.4153251953125,8.228325683593749,-0.21518341607840244,-0.2055960361541172,-1.7065536265227759,34.302442613115296,359.97045353883703,213.93235967025637
2026-09-24 19:44:40.779109888,-0.27531494140624996,5.48954052734375,8.22353759765625,-0.19174759848570516,-0.20453077171808548,-1.688444131110237,34.18478709036241,0.42243660468394806,213.0640314283105
2026-09-24 19:44:40.779109888,-0.30404345703124996,5.530239257812499,8.28099462890625,-0.17363810307316632,-0.19600865622983193,-1.663943049081508,34.07151201010229,0.8679012783579337,212.20808486410303
2026-09-24 19:44:40.779109888,-0.42613964843749996,5.4991166992187495,8.28578271484375,-0.1587244009687226,-0.1832254829974516,-1.6330503804365888,33.96181534529738,1.3070092156091846,211.36935585202485
2026-09-24 19:44:40.779109888,-0.56738818359375,5.525451171875,8.38633251953125,-0.14700649217237394,-0.1757686319452297,-1.5968313896115112,33.85297025616781,1.7387133212177217,210.54849559712216
2026-09-24 19:44:40.779109888,-0.6823022460937499,5.5541796875,8.340845703125,-0.12783173232380343,-0.17363810307316632,-1.5499597544261166,33.748727737657724,2.1570500402931745,209.74915424272933
2026-09-24 19:44:40.779109888,-0.86424951171875,5.55657373046875,8.35281591796875,-0.11078750134729631,-0.17896442525332482,-1.4913702104443733,33.650402156132344,2.555444976506743,208.9738698488735
2026-09-24 19:44:40.779109888,-0.91691845703125,5.621212890624999,8.31451123046875,-0.09800432811491597,-0.18855180517761005,-1.4306501375905667,33.556307513792,2.9305329330541676,208.22392283718156
2026-09-24 19:44:40.779109888,-0.9552231445312499,5.657123535156249,8.35281591796875,-0.08522115488253562,-0.19813918510189532,-1.3624732136845383,33.4672327445036,3.277896106226037,207.50150119242178
2026-09-24 19:44:40.779109888,-0.9839516601562499,5.688246093749999,8.33126953125,-0.07989483270237714,-0.2077265650261806,-1.2932310253424781,33.37988776879977,3.5975269633760782,206.80838481689534
2026-09-24 19:44:40.779109888,-1.03662060546875,5.7121865234374996,8.316905273437499,-0.07882956826634545,-0.21305288720633905,-1.2175972503842276,33.293040994648564,3.8899195422949107,206.14851801964326
2026-09-24 19:44:40.779109888,-1.0868955078125,5.70021630859375,8.359998046874999,-0.07776430383031376,-0.21944447382252924,-1.1419634754259773,33.206006695182936,4.154443373705604,205.52234516774962
2026-09-24 19:44:40.805985024,-1.1802631835937498,5.702610351562499,8.388726562499999,-0.07882956826634545,-0.22903185374681448,-1.0610033782875685,33.118953196635836,4.3888313188076475,204.93157595325695
2026-09-24 19:44:40.805985024,-1.1587167968749998,5.71458056640625,8.38154443359375,-0.07882956826634545,-0.23648870479903636,-0.9747169589690012,33.03184843764227,4.592677360272129,204.37807133682492
2026-09-24 19:44:40.819736576,-1.17068701171875,5.70021630859375,8.405484863281249,-0.07669903939428206,-0.24181502697919482,-0.8873652752144021,32.94761788549385,4.764942803301621,203.86443283550557
2026-09-24 19:44:40.850707200,-1.120412109375,5.702610351562499,8.41984912109375,-0.07669903939428206,-0.24181502697919482,-0.8010788558958348,32.866301496092035,4.908182039852126,203.39187323362054
2026-09-24 19:44:40.850707200,-1.0964716796874998,5.71458056640625,8.4126669921875,-0.07882956826634545,-0.2439455558512582,-0.7179882298853626,32.78620325016337,5.022834590114105,202.95901688176622
2026-09-24 19:44:40.884779520,-1.0677431640625,5.7313388671875,8.410272949218749,-0.08628641931856731,-0.2450108202872899,-0.6391586616190171,32.70494819991706,5.111641608090209,202.56489069382928
2026-09-24 19:44:40.893928192,-1.0773193359375,5.66191162109375,8.388726562499999,-0.09374327037078918,-0.2439455558512582,-0.5667206799688619,32.622744370738644,5.17699552800809,202.2061088082012
2026-09-24 19:44:40.894928128,-1.00310400390625,5.652335449218749,8.410272949218749,-0.10226538585904274,-0.23542344036300467,-0.49641322719077,32.5384601910645,5.222189564249483,201.88344465818363
2026-09-24 19:44:40.895928064,-1.024650390625,5.55657373046875,8.439001464843749,-0.10439591473110614,-0.2258360604387194,-0.4261057744126781,32.45483229368749,5.249085016920612,201.59783951724276
2026-09-24 19:44:40.896929280,-1.00310400390625,5.475176269531249,8.52279296875,-0.10333065029507445,-0.21944447382252924,-0.3568635860706179,32.373021043582355,5.258361768647737,201.34821524435483
2026-09-24 19:44:40.898987008,-0.99352783203125,5.408143066406249,8.477306152343749,-0.09906959255094766,-0.21411815164237075,-0.2908171910366528,32.296092259638534,5.249049583673808,201.13275421925505
2026-09-24 19:44:40.914572800,-0.9600112304687499,5.374626464843749,8.49645849609375,-0.09267800593475749,-0.20985709389824397,-0.2269013248747511,32.22555642739296,5.222140923732647,200.9498820252441
2026-09-24 19:44:40.914572800,-0.9432529296875,5.353080078124999,8.439001464843749,-0.08522115488253562,-0.2055960361541172,-0.17044230976507124,32.16143699356577,5.1789994558404935,200.79643145016263
2026-09-24 19:44:40.930080000,-0.8211567382812499,5.29801708984375,8.455759765624999,-0.07882956826634545,-0.19600865622983193,-0.11930961683554987,32.1035033275868,5.122906188888578,200.671417002634
2026-09-24 19:44:40.930080000,-0.83552099609375,5.281258789062499,8.455759765624999,-0.07030745277809189,-0.1821602185614199,-0.07456851052221868,32.05252027965909,5.0582746168065595,200.57327193185324
2026-09-24 19:44:40.945731584,-0.7373652343749999,5.2238017578125,8.465335937499999,-0.06498113059793341,-0.16405072314888108,-0.03408846195301425,32.00759464716601,4.988791829957837,200.5004903646039
2026-09-24 19:44:40.945731584,-0.7349711914062499,5.233377929687499,8.44618359375,-0.059654808417774936,-0.14594122773634224,-0.0010652644360316954,31.966876585175545,4.916890347603486,200.4503815864466
2026-09-24 19:44:40.961369344,-0.73018310546875,5.19267919921875,8.513216796875,-0.05219795736555307,-0.12889699675983513,0.02663161090079238,31.932098615231446,4.844578610770802,200.41996155741543
2026-09-24 19:44:40.993081856,-0.6894843749999999,5.1471923828124995,8.477306152343749,-0.043675841877299504,-0.111852765783328,0.05326322180158476,31.90341414586242,4.772640384356314,200.40799213889144
2026-09-24 19:44:40.993081856,-0.7349711914062499,5.1376162109375,8.489276367187498,-0.03302319751698255,-0.09587379924285258,0.07776430383031376,31.882379738637848,4.701006700392063,200.41327450997028
2026-09-24 19:44:40.993081856,-0.7349711914062499,5.175920898437499,8.553915527343749,-0.023435817592697295,-0.08415589044650393,0.10013485698697935,31.867395232550276,4.628816336026586,200.43305748014447
2026-09-24 19:44:41.008712960,-0.7086367187499999,5.178314941406249,8.53955126953125,-0.01597896654047543,-0.07243798165015528,0.12144014570761326,31.85805960877367,4.555992888174155,200.46748705206062
2026-09-24 19:44:41.024717312,-0.73018310546875,5.12085791015625,8.506034667968748,-0.009587379924285258,-0.06178533728983833,0.1374191122480887,31.853574739025717,4.483267922986118,200.51347667671988
2026-09-24 19:44:41.040483840,-0.75891162109375,5.15437451171875,8.553915527343749,-0.004261057744126781,-0.05219795736555307,0.15339807878856412,31.853171630015275,4.410721444657161,200.57033104293163
2026-09-24 19:44:41.040483840,-0.7038486328125,5.20225537109375,8.49167041015625,-0.006391586616190171,-0.043675841877299504,0.1629854587128494,31.85296999236372,4.339127102061634,200.63524620297798
2026-09-24 19:44:41.040483840,-0.6799082031249999,5.20225537109375,8.537157226562499,-0.008522115488253563,-0.035153726389045944,0.17150757420110294,31.852652930931683,4.269372181233743,200.7075081107397
2026-09-24 19:44:41.056125952,-0.7421533203124999,5.161556640624999,8.5563095703125,-0.010652644360316953,-0.02876213977285577,0.17896442525332482,31.85115301062885,4.200279785922628,200.78532116699196
2026-09-24 19:44:41.071739392,-0.78285205078125,5.178314941406249,8.513216796875,-0.009587379924285258,-0.024501082028728992,0.18429074743348328,31.84954655986677,4.132586276486917,200.8675796758888
2026-09-24 19:44:41.087364864,-0.7996103515624999,5.128040039062499,8.6185546875,0.0,-0.02769687533682408,0.19387812735776855,31.85214589019408,3.995098686480284,201.03914749223347
2026-09-24 19:44:41.103017984,-0.8091865234375,5.1136757812499996,8.59700830078125,0.0031957933080950856,-0.03302319751698255,0.19707392066586363,31.857915525398585,3.921127387824175,201.1251622842023
2026-09-24 19:44:41.103017984,-0.7900341796874999,5.1567685546875,8.599402343749999,0.012783173232380343,-0.04048004856920442,0.19920444953792701,31.86821995735231,3.8429867060082206,201.21048890631553
2026-09-24 19:44:41.118864896,-0.7325771484375,5.17352685546875,8.56827978515625,0.014913702104443734,-0.04793689962142629,0.19707392066586363,31.88151594374353,3.761172629540023,201.29316808167738
2026-09-24 19:44:41.134489344,-0.7206069335937499,5.1998613281249995,8.561097656249999,0.011717908796348648,-0.054328486237616457,0.19494339179380024,31.893316082317384,3.676970970309494,201.37258980007297
2026-09-24 19:44:41.134489344,-0.6583618164062499,5.1711328125,8.6233427734375,0.005326322180158476,-0.05539375067364816,0.18961706961364175,31.902230391203723,3.5924217983945685,201.44927670416365
2026-09-24 19:44:41.150114048,-0.64399755859375,5.19267919921875,8.599402343749999,0.0,-0.054328486237616457,0.18535601186951497,31.90555212582735,3.50961760676031,201.52348771709228
2026-09-24 19:44:41.150114048,-0.612875,5.159162597656249,8.587432128906249,-0.004261057744126781,-0.04793689962142629,0.1810949541253882,31.906636561400152,3.4305990440710494,201.59767145542367
2026-09-24 19:44:41.165739520,-0.6104809570312499,5.15437451171875,8.58025,-0.005326322180158476,-0.04154531300523612,0.17363810307316632,31.905320985319754,3.3565129219880387,201.67039382643404
2026-09-24 19:44:41.181364224,-0.6344213867187499,5.13522216796875,8.56827978515625,-0.005326322180158476,-0.035153726389045944,0.16937704532903955,31.904202722433396,3.2872768487365795,201.74313785136096
2026-09-24 19:44:41.181364224,-0.6080869140624999,5.104099609375,8.570673828124999,-0.0010652644360316954,-0.03195793308095086,0.16192019427681767,31.904618487418603,3.222192598452476,201.81363217260227
2026-09-24 19:44:41.212626176,-0.6104809570312499,5.0777651367187495,8.53476318359375,0.0021305288720633907,-0.030892668644919165,0.1565938720966592,31.90729827313229,3.159016622588274,201.88141591709288
2026-09-24 19:44:41.212626176,-0.59132861328125,5.128040039062499,8.577855957031248,0.012783173232380343,-0.02663161090079238,0.14913702104443735,31.91540682915687,3.099827837944047,201.94653789459002
2026-09-24 19:44:41.243906304,-0.5745703124999999,5.128040039062499,8.570673828124999,0.022370553156665602,-0.022370553156665602,0.13954964112015208,31.929083458448858,3.0450991629594713,202.00862766495436
2026-09-24 19:44:41.263518464,-0.6104809570312499,5.092129394531249,8.56827978515625,0.02876213977285577,-0.01810949541253882,0.12889699675983513,31.946781643910132,2.996318109839371,202.06645222666472
2026-09-24 19:44:41.275523328,-0.64399755859375,5.1711328125,8.59222021484375,0.03302319751698255,-0.02024002428460221,0.11611382352745478,31.967110149962263,2.95104756803941,202.11864850553482
2026-09-24 19:44:41.291153664,-0.6535737304687499,5.161556640624999,8.60658447265625,0.03621899082507764,-0.02663161090079238,0.10333065029507445,31.988539810512982,2.9076273821863907,202.16274635104313
2026-09-24 19:44:41.306778880,-0.6535737304687499,5.1854970703125,8.57306787109375,0.03408846195301425,-0.035153726389045944,0.08948221262666241,32.00874314285854,2.863838787988991,202.19801055141994
2026-09-24 19:44:41.338030080,-0.56738818359375,5.230983886718749,8.58025,0.03302319751698255,-0.04048004856920442,0.07989483270237714,32.02872531571874,2.8202596775912347,202.22615656363467
2026-09-24 19:44:41.353653504,-0.55781201171875,5.19267919921875,8.53955126953125,0.035153726389045944,-0.04154531300523612,0.07137271721412358,32.0488416718864,2.777759216607915,202.24924026688757
2026-09-24 19:44:41.353653504,-0.53865966796875,5.269288574218749,8.52518701171875,0.03621899082507764,-0.03834951969714103,0.06711165946999681,32.070019381301115,2.737888679489892,202.27052713825546
2026-09-24 19:44:41.384903424,-0.5219013671874999,5.286046874999999,8.587432128906249,0.03195793308095086,-0.03302319751698255,0.059654808417774936,32.08967554756485,2.702742688701819,202.2900909022516
2026-09-24 19:44:41.384903424,-0.5506298828124999,5.2357719726562495,8.53476318359375,0.024501082028728992,-0.030892668644919165,0.054328486237616457,32.106297528643545,2.67095176367368,202.30777550081632
2026-09-24 19:44:41.384903424,-0.49556689453124997,5.31238134765625,8.489276367187498,0.017044230976507126,-0.030892668644919165,0.04793689962142629,32.11830077636948,2.6414547746266823,202.32275796543055
2026-09-24 19:44:41.384903424,-0.5003549804687499,5.2908349609375,8.503640625,0.009587379924285258,-0.029827404208887468,0.04154531300523612,32.125415810888136,2.6134451115341495,202.33439329815877
2026-09-24 19:44:41.384903424,-0.49317285156249996,5.32674560546875,8.417455078125,0.0010652644360316954,-0.02663161090079238,0.03834951969714103,32.12812820869741,2.5880547434383243,202.34529597425103
2026-09-24 19:44:41.384903424,-0.5219013671874999,5.238166015625,8.448577636718749,-0.0031957933080950856,-0.024501082028728992,0.03302319751698255,32.127074455353345,2.5651568623546552,202.354680472262
2026-09-24 19:44:41.384903424,-0.48838476562499994,5.2046494140625,8.494064453124999,-0.007456851052221867,-0.021305288720633905,0.02876213977285577,32.12238417703388,2.546097451166203,202.36299980598454
2026-09-24 19:44:41.384903424,-0.5242954101562499,5.1998613281249995,8.50124658203125,-0.011717908796348648,-0.01810949541253882,0.022370553156665602,32.114694510391445,2.530518381267261,202.36944249520099
2026-09-24 19:44:41.397191936,-0.536265625,5.1471923828124995,8.577855957031248,-0.01384843766841204,-0.017044230976507126,0.01597896654047543,32.10533684510625,2.5178790919137195,202.37341760797207
2026-09-24 19:44:41.397989888,-0.5290834960937499,5.12085791015625,8.549127441406249,-0.01597896654047543,-0.01810949541253882,0.008522115488253563,32.093722699763575,2.507068565736229,202.37324798056815
2026-09-24 19:44:41.415101440,-0.5290834960937499,5.092129394531249,8.5563095703125,-0.011717908796348648,-0.019174759848570515,0.0010652644360316954,32.082980939081416,2.498226982609774,202.36928772467897
2026-09-24 19:44:41.415101440,-0.54344775390625,5.092129394531249,8.527581054687499,-0.006391586616190171,-0.017044230976507126,-0.004261057744126781,32.07504685354516,2.491701682120829,202.36254267149008
2026-09-24 19:44:41.432410368,-0.5530239257812499,5.037066406249999,8.506034667968748,-0.0010652644360316954,-0.014913702104443734,-0.007456851052221867,32.07042492438375,2.4877183762635564,202.3541324111377
2026-09-24 19:44:41.432410368,-0.55781201171875,5.075371093749999,8.510822753906249,0.0021305288720633907,-0.009587379924285258,-0.010652644360316953,32.06897001397167,2.486683970157389,202.34555557654772
2026-09-24 19:44:41.432410368,-0.55781201171875,5.0801591796875,8.5467333984375,0.006391586616190171,-0.006391586616190171,-0.011717908796348648,32.069978529996966,2.487468404805032,202.33743440144212
2026-09-24 19:44:41.449355776,-0.55781201171875,5.09691748046875,8.57306787109375,0.010652644360316953,-0.006391586616190171,-0.012783173232380343,32.07320471150835,2.489511118388185,202.32885221462467
2026-09-24 19:44:41.464545024,-0.6344213867187499,5.123251953124999,8.565885742187499,0.01810949541253882,-0.009587379924285258,-0.014913702104443734,32.080322117350576,2.4908689515594173,202.31868213724735
2026-09-24 19:44:41.464545024,-0.6176630859375,5.111281738281249,8.577855957031248,0.02663161090079238,-0.012783173232380343,-0.017044230976507126,32.092078055504125,2.492098300310054,202.30667165831903
2026-09-24 19:44:41.483549696,-0.61526904296875,5.108887695312499,8.608978515625,0.030892668644919165,-0.019174759848570515,-0.02024002428460221,32.10688455017882,2.4913092833724844,202.29116684714083
2026-09-24 19:44:41.501506816,-0.64878564453125,5.15198046875,8.58025,0.03728425526110934,-0.021305288720633905,-0.021305288720633905,32.12515306159573,2.4895069867800235,202.27406749370934
2026-09-24 19:44:41.501506816,-0.6056928710937499,5.18789111328125,8.599402343749999,0.04261057744126781,-0.023435817592697295,-0.022370553156665602,32.14673539587924,2.4873935985774582,202.25623362059673
2026-09-24 19:44:41.501506816,-0.6368154296874999,5.2190136718749995,8.599402343749999,0.04261057744126781,-0.025566346464760685,-0.021305288720633905,32.16912883947234,2.4835681535131866,202.23759541502943
2026-09-24 19:44:41.514756096,-0.6032988281249999,5.24534814453125,8.52039892578125,0.04048004856920442,-0.029827404208887468,-0.019174759848570515,32.19139063330781,2.477783201994083,202.21903382445112
2026-09-24 19:44:41.535605504,-0.64878564453125,5.250136230468749,8.582644042968749,0.03728425526110934,-0.03408846195301425,-0.017044230976507126,32.21249738916581,2.4690132778513707,202.19979701782498
2026-09-24 19:44:41.535605504,-0.6080869140624999,5.250136230468749,8.58025,0.03302319751698255,-0.03728425526110934,-0.01384843766841204,32.230564788562305,2.457704341373984,202.18137421803385
2026-09-24 19:44:41.548576768,-0.67751416015625,5.29322900390625,8.532369140624999,0.02663161090079238,-0.04261057744126781,-0.011717908796348648,32.24552525978614,2.4431379112327987,202.16252615302784
2026-09-24 19:44:41.566583552,-0.6870903320312499,5.36265625,8.5563095703125,0.01597896654047543,-0.05326322180158476,-0.004261057744126781,32.255759229579645,2.4233678339332743,202.14376485155177
2026-09-24 19:44:41.594151680,-0.6320273437499999,5.321957519531249,8.494064453124999,0.006391586616190171,-0.06178533728983833,-0.0010652644360316954,32.26062321514131,2.3969215638955883,202.1238269018303
2026-09-24 19:44:41.630182656,-0.59132861328125,5.276470703125,8.551521484375,0.0,-0.0660463950339651,0.004261057744126781,32.26090214002948,2.366590582212771,202.10531394059208
2026-09-24 19:44:41.645812480,-0.5745703124999999,5.1998613281249995,8.494064453124999,-0.0031957933080950856,-0.07456851052221868,0.007456851052221867,32.25729126010971,2.330747247607182,202.08665966251098
2026-09-24 19:44:41.645812480,-0.5482358398437499,5.24534814453125,8.52039892578125,-0.009587379924285258,-0.07350324608618697,0.012783173232380343,32.25004431412473,2.2932118906499164,202.07033152342674
2026-09-24 19:44:41.649712896,-0.6032988281249999,5.2190136718749995,8.5563095703125,-0.011717908796348648,-0.07776430383031376,0.01810949541253882,32.242030018260984,2.2528492584907704,202.0557809845817
2026-09-24 19:44:41.650717440,-0.5219013671874999,5.175920898437499,8.5084287109375,-0.01597896654047543,-0.08415589044650393,0.025566346464760685,32.23072984903698,2.207577000634948,202.0426305821247
2026-09-24 19:44:41.651484672,-0.51471923828125,5.1998613281249995,8.5419453125,-0.01597896654047543,-0.08948221262666241,0.03302319751698255,32.21851912333572,2.1564377309494245,202.03130273627823
2026-09-24 19:44:41.653053696,-0.41177539062499996,5.13522216796875,8.561097656249999,-0.012783173232380343,-0.08948221262666241,0.043675841877299504,32.207515364580544,2.101389365802598,202.02430615080212
2026-09-24 19:44:41.653053696,-0.41895751953125,5.11606982421875,8.553915527343749,-0.008522115488253563,-0.08522115488253562,0.049002164057457984,32.19912738070751,2.0456443703834557,202.02180873547354
2026-09-24 19:44:41.689843712,-0.39501708984374995,5.1471923828124995,8.5467333984375,-0.004261057744126781,-0.08096009713840883,0.05539375067364816,32.19350522561578,1.9897049526058792,202.02355564626467
2026-09-24 19:44:41.700741888,-0.3782587890625,5.128040039062499,8.5180048828125,-0.0031957933080950856,-0.07563377495825037,0.06178533728983833,32.18909658088976,1.9343472907691377,202.0300529034302
2026-09-24 19:44:41.701745920,-0.32558984375,5.159162597656249,8.532369140624999,-0.0031957933080950856,-0.07137271721412358,0.06711165946999681,32.18494397324328,1.8792164971175196,202.04044585088334
2026-09-24 19:44:41.703746048,-0.30404345703124996,5.125645996093749,8.55870361328125,-0.0021305288720633907,-0.0660463950339651,0.0692421883420602,32.1812613876553,1.8257842679999592,202.05349699559406
2026-09-24 19:44:41.703746048,-0.32558984375,5.106493652343749,8.582644042968749,0.0010652644360316954,-0.06072007285380663,0.0681769239060285,32.179798017449016,1.7741131743764469,202.0680936980989
2026-09-24 19:44:41.710631936,-0.27770898437499997,5.075371093749999,8.59222021484375,0.011717908796348648,-0.05752427954571154,0.06391586616190172,32.18297237386994,1.7253683718942734,202.08227315060577
2026-09-24 19:44:41.748254464,-0.27052685546875,5.08255322265625,8.549127441406249,0.023435817592697295,-0.05752427954571154,0.059654808417774936,32.19264694099531,1.6777497219817117,202.0943778045598
2026-09-24 19:44:41.756981760,-0.28489111328125,5.125645996093749,8.55870361328125,0.03408846195301425,-0.05645901510967985,0.05326322180158476,32.208730853664306,1.632629783601268,202.10387340862184
2026-09-24 19:44:41.756981760,-0.19152343749999998,5.1471923828124995,8.503640625,0.04261057744126781,-0.054328486237616457,0.043675841877299504,32.23065772913824,1.591070162678375,202.10971593714808
2026-09-24 19:44:41.769473024,-0.15800683593749998,5.247742187499999,8.532369140624999,0.049002164057457984,-0.05006742849348968,0.03728425526110934,32.257009740756274,1.5527748775753811,202.1133405470831
2026-09-24 19:44:41.770694144,-0.229828125,5.276470703125,8.503640625,0.05539375067364816,-0.04261057744126781,0.029827404208887468,32.28723062224213,1.519762292974461,202.1150472610227
2026-09-24 19:44:41.771476736,-0.1963115234375,5.269288574218749,8.515610839843749,0.05752427954571154,-0.03834951969714103,0.021305288720633905,32.31923193390647,1.492414240694444,202.11450667467963
2026-09-24 19:44:41.771476736,-0.21785791015624997,5.281258789062499,8.553915527343749,0.059654808417774936,-0.03621899082507764,0.010652644360316953,32.35246213010252,1.4694491760136776,202.11029072009296
2026-09-24 19:44:41.804579840,-0.23701025390624997,5.314775390625,8.553915527343749,0.06285060172587002,-0.04048004856920442,0.0010652644360316954,32.38775292098884,1.447840260337724,202.10002069219408
2026-09-24 19:44:41.817299200,-0.19391748046875,5.36265625,8.553915527343749,0.06072007285380663,-0.044741106313331204,-0.006391586616190171,32.421920008509254,1.4276386402386012,202.08437313237297
2026-09-24 19:44:41.819303680,-0.1292783203125,5.36505029296875,8.64010107421875,0.05858954398174324,-0.0458063707493629,-0.017044230976507126,32.45530134894388,1.409039105517458,202.06317095128912
2026-09-24 19:44:41.825035008,-0.08857958984374999,5.43208349609375,8.5467333984375,0.05113269292952137,-0.043675841877299504,-0.025566346464760685,32.485235012519986,1.3932156158332532,202.03765123017402
2026-09-24 19:44:41.825035008,-0.055062988281249996,5.45123583984375,8.4797001953125,0.03728425526110934,-0.03408846195301425,-0.03195793308095086,32.50853893403575,1.3832355177270501,202.01108426849848
2026-09-24 19:44:41.848181248,-0.09336767578124999,5.410537109374999,8.5419453125,0.023435817592697295,-0.019174759848570515,-0.035153726389045944,32.52445514831741,1.3802956393029817,201.9868341161745
2026-09-24 19:44:41.869644288,-0.08857958984374999,5.410537109374999,8.56827978515625,0.008522115488253563,-0.0021305288720633907,-0.03728425526110934,32.531638322928515,1.3863427626229374,201.96679257269406
2026-09-24 19:44:41.869644288,-0.201099609375,5.405749023437499,8.565885742187499,-0.009587379924285258,0.007456851052221867,-0.04048004856920442,32.5272218281446,1.4002700252397282,201.94930183947386
2026-09-24 19:44:41.887571456,-0.30404345703124996,5.40335498046875,8.55870361328125,-0.035153726389045944,0.004261057744126781,-0.03621899082507764,32.50932510258464,1.4150642362560324,201.9335929050305
2026-09-24 19:44:41.899465984,-0.26334472656249996,5.317169433593749,8.589826171875,-0.059654808417774936,-0.005326322180158476,-0.030892668644919165,32.47652267001395,1.4246157881602572,201.9174860736901
2026-09-24 19:44:41.905979392,-0.2154638671875,5.1854970703125,8.58025,-0.07563377495825037,-0.008522115488253563,-0.025566346464760685,32.43251484288828,1.4288641303890897,201.9015333258944
2026-09-24 19:44:41.905979392,-0.19391748046875,5.0801591796875,8.498852539062499,-0.08522115488253562,-0.004261057744126781,-0.01810949541253882,32.38148380266692,1.4321520697734946,201.8898912362256
2026-09-24 19:44:41.905979392,-0.20828173828125,5.0059438476562494,8.405484863281249,-0.0905474770626941,0.0021305288720633907,-0.009587379924285258,32.326135481783105,1.436243847635497,201.88397494860072
2026-09-24 19:44:41.939022080,-0.17237109374999998,5.0131259765625,8.443789550781249,-0.0905474770626941,0.014913702104443734,0.004261057744126781,32.2701436508912,1.4414588255339529,201.88844652058933
2026-09-24 19:44:41.939022080,-0.2537685546875,4.97721533203125,8.359998046874999,-0.08628641931856731,0.02663161090079238,0.025566346464760685,32.215974848945,1.4466814398084928,201.9066239156516
2026-09-24 19:44:41.971401472,-0.258556640625,4.967639160156249,8.410272949218749,-0.07563377495825037,0.039414784133172724,0.05645901510967985,32.167469201563435,1.4502625972195726,201.94240002109902
2026-09-24 19:44:41.993295104,-0.335166015625,4.9460927734375,8.36957421875,-0.049002164057457984,0.05539375067364816,0.08841694819063071,32.13230610172301,1.4516189792211749,201.9975435322756
2026-09-24 19:44:41.993295104,-0.43571582031249995,4.967639160156249,8.4509716796875,-0.017044230976507126,0.06285060172587002,0.11717908796348649,32.115735210019636,1.4493430586875296,202.07051102925675
2026-09-24 19:44:42.023911680,-0.42613964843749996,5.01073193359375,8.4413955078125,0.010652644360316953,0.06178533728983833,0.14061490555618378,32.11700266053872,1.4407139123885226,202.15553092000894
2026-09-24 19:44:42.023911680,-0.5482358398437499,5.0777651367187495,8.482094238281249,0.03621899082507764,0.05326322180158476,0.1565938720966592,32.13456233286907,1.4234748243858335,202.24766388700036
2026-09-24 19:44:42.039543808,-0.51471923828125,5.175920898437499,8.410272949218749,0.05645901510967985,0.03621899082507764,0.17044230976507124,32.16433679680951,1.3952587699012846,202.34207148739566
2026-09-24 19:44:42.039543808,-0.47162646484375,5.276470703125,8.455759765624999,0.0692421883420602,0.01810949541253882,0.1800296896893565,32.20409680584806,1.354894885970394,202.43544123936613
2026-09-24 19:44:42.039543808,-0.46444433593749995,5.300411132812499,8.431819335937499,0.08309062601047223,0.0021305288720633907,0.18748654074157836,32.251765753815974,1.3036678468668215,202.52736175921976
2026-09-24 19:44:42.039543808,-0.42853369140625,5.3770205078124995,8.439001464843749,0.09587379924285258,-0.005326322180158476,0.19600865622983193,32.307369908292706,1.2446922109503489,202.62053094586858
2026-09-24 19:44:42.039543808,-0.42135156249999994,5.444053710937499,8.46772998046875,0.1129180302193597,-0.009587379924285258,0.2066613005901489,32.37332752452146,1.1796191398593692,202.71734060635774
2026-09-24 19:44:42.043653120,-0.40459326171875,5.544603515624999,8.388726562499999,0.12570120345174005,-0.01597896654047543,0.21198762277030736,32.44823292234766,1.1100151189765795,202.81553016444383
2026-09-24 19:44:42.048518912,-0.40938134765624995,5.6834580078125,8.482094238281249,0.1331580545039619,-0.023435817592697295,0.21518341607840244,32.528574649033175,1.0356221637385703,202.91313811977744
2026-09-24 19:44:42.051067904,-0.34234814453124995,5.7840078125,8.443789550781249,0.12996226119586682,-0.03728425526110934,0.21411815164237075,32.60882857025391,0.9545416367875059,203.00679535511347
2026-09-24 19:44:42.070693376,-0.3208017578125,5.87737548828125,8.422243164062499,0.11611382352745478,-0.05113269292952137,0.21305288720633905,32.683925763179126,0.8668884773329728,203.09529924743828
2026-09-24 19:44:42.105741824,-0.21067578124999997,5.968349121093749,8.38154443359375,0.09693906367888427,-0.06178533728983833,0.20453077171808548,32.74966630444668,0.7754380196822285,203.1768957874698
2026-09-24 19:44:42.119186176,-0.13885449218749998,6.023412109374999,8.383938476562498,0.07350324608618697,-0.07030745277809189,0.19707392066586363,32.80232262688569,0.6804356315184595,203.25208352382336
2026-09-24 19:44:42.119186176,-0.08379150390625,6.059322753906249,8.376756347656249,0.04793689962142629,-0.07456851052221868,0.18855180517761005,32.84104563449893,0.5854063651934474,203.32133864161617
2026-09-24 19:44:42.119186176,-0.06463916015625,6.054534667968749,8.36957421875,0.021305288720633905,-0.07456851052221868,0.17789916081729312,32.86491000971498,0.4926481738469665,203.38507790787813
2026-09-24 19:44:42.119186176,-0.01915234375,5.9755312499999995,8.36239208984375,-0.0021305288720633907,-0.07989483270237714,0.16192019427681767,32.8736656475638,0.40254663303213056,203.44111918092892
2026-09-24 19:44:42.131266816,0.0335166015625,5.9922895507812495,8.376756347656249,-0.029827404208887468,-0.08309062601047223,0.14594122773634224,32.865373769221335,0.31532090124108203,203.48872024287402
2026-09-24 19:44:42.147628288,0.09815576171875,5.915680175781249,8.383938476562498,-0.05539375067364816,-0.08628641931856731,0.12996226119586682,32.842281349789026,0.23106092448127769,203.52722815071814
2026-09-24 19:44:42.170979584,0.17715917968749997,5.85343505859375,8.439001464843749,-0.07776430383031376,-0.08841694819063071,0.1129180302193597,32.80488036428754,0.15059272981989436,203.5569013548909
2026-09-24 19:44:42.182759680,0.19152343749999998,5.736126953125,8.40787890625,-0.09480853480682087,-0.08948221262666241,0.09906959255094766,32.756418713938174,0.07348252644506917,203.57878113167817
2026-09-24 19:44:42.203066112,0.28489111328125,5.685852050781249,8.39112060546875,-0.10226538585904274,-0.08522115488253562,0.08522115488253562,32.70145153616259,0.0017759879146429982,203.5954604346262
2026-09-24 19:44:42.221870848,0.33756005859375,5.6403652343749995,8.41506103515625,-0.10652644360316953,-0.07243798165015528,0.07456851052221868,32.64331485040107,359.9373414827247,203.6097750217022
2026-09-24 19:44:42.221870848,0.35431835937499995,5.5876962890624995,8.38633251953125,-0.10759170803920122,-0.05752427954571154,0.0660463950339651,32.5835444360895,359.88278991161667,203.62455041713443
2026-09-24 19:44:42.221870848,0.42613964843749996,5.50390478515625,8.40787890625,-0.10652644360316953,-0.03621899082507764,0.059654808417774936,32.524047141952316,359.83968883098026,203.6416876405429
2026-09-24 19:44:42.221870848,0.37347070312499997,5.448841796875,8.388726562499999,-0.10546117916713783,-0.014913702104443734,0.054328486237616457,32.46428106474744,359.80866099812096,203.6625003830911
2026-09-24 19:44:42.221870848,0.29925537109375,5.38420263671875,8.41506103515625,-0.10546117916713783,0.0021305288720633907,0.04687163518539459,32.403866599399656,359.7896336153389,203.686143151696
2026-09-24 19:44:42.230547712,0.30404345703124996,5.35068603515625,8.42463720703125,-0.10546117916713783,0.012783173232380343,0.039414784133172724,32.34223139978635,359.779242599548,203.71021191032713
2026-09-24 19:44:42.254702080,0.26334472656249996,5.24056005859375,8.460547851562499,-0.10546117916713783,0.029827404208887468,0.030892668644919165,32.28068205092332,359.77856802216445,203.73515097427205
2026-09-24 19:44:42.270800384,0.24419238281249997,5.2094375,8.45336572265625,-0.10013485698697935,0.04154531300523612,0.021305288720633905,32.2205760742611,359.78822928602756,203.75925896298205
2026-09-24 19:44:42.292787712,0.22025195312499998,5.17352685546875,8.513216796875,-0.08948221262666241,0.05113269292952137,0.01384843766841204,32.16522420842808,359.8050524081259,203.78292510447653
2026-09-24 19:44:42.298920704,0.229828125,5.1471923828124995,8.477306152343749,-0.07669903939428206,0.05858954398174324,0.005326322180158476,32.11672226156575,359.8282391355454,203.80445424010193
2026-09-24 19:44:42.313924608,0.16997705078124997,5.106493652343749,8.506034667968748,-0.06072007285380663,0.07243798165015528,0.0,32.07694902929517,359.8596439890187,203.82691490365923
2026-09-24 19:44:42.313924608,0.14364257812499998,5.14958642578125,8.513216796875,-0.0458063707493629,0.08415589044650393,-0.012783173232380343,32.04545866133754,359.90129395140156,203.84713142317352
2026-09-24 19:44:42.345653760,0.05027490234375,5.08255322265625,8.52997509765625,-0.03302319751698255,0.08841694819063071,-0.02663161090079238,32.022228746711065,359.95017012240135,203.86289747607
2026-09-24 19:44:42.376903424,0.028728515625,5.13522216796875,8.5850380859375,-0.029827404208887468,0.08841694819063071,-0.04048004856920442,32.00196596165785,0.004555078147875528,203.8719797362724
2026-09-24 19:44:42.392527360,-0.035910644531249994,5.1663447265624995,8.577855957031248,-0.035153726389045944,0.08628641931856731,-0.05326322180158476,31.979986692131444,0.0625789219180447,203.87408436679956
2026-09-24 19:44:42.392527360,-0.055062988281249996,5.144798339843749,8.5467333984375,-0.04793689962142629,0.08202536157444054,-0.06285060172587002,31.95221945935687,0.12224403332993197,203.8699506613749
2026-09-24 19:44:42.392527360,-0.04069873046875,5.106493652343749,8.63531298828125,-0.06072007285380663,0.08415589044650393,-0.0692421883420602,31.916004159435005,0.18358014314716956,203.86199344425032
2026-09-24 19:44:42.392527360,-0.1675830078125,5.058612792968749,8.616160644531249,-0.07456851052221868,0.0905474770626941,-0.07456851052221868,31.871870001753546,0.2501997648523548,203.85391536301597
2026-09-24 19:44:42.408153344,-0.1484306640625,5.008337890625,8.67840576171875,-0.08841694819063071,0.0905474770626941,-0.07243798165015528,31.818723819762283,0.31854537330766336,203.84599827928454
2026-09-24 19:44:42.408153344,-0.22264599609375,4.948486816406249,8.6807998046875,-0.09800432811491597,0.0916127414987258,-0.0692421883420602,31.7586888131132,0.3861806928529537,203.83972487877693
2026-09-24 19:44:42.408153344,-0.22025195312499998,4.917364257812499,8.716710449218748,-0.10759170803920122,0.0905474770626941,-0.05858954398174324,31.69298503009397,0.45220392295044426,203.83794403500187
2026-09-24 19:44:42.408153344,-0.29446728515625,4.9006059570312495,8.6951640625,-0.10865697247523291,0.08841694819063071,-0.0458063707493629,31.62507164080577,0.5133243161950994,203.84057653740354
2026-09-24 19:44:42.408153344,-0.28728515624999995,4.85751318359375,8.616160644531249,-0.10652644360316953,0.0905474770626941,-0.02876213977285577,31.558224307053187,0.5698002819843916,203.8513540769167
2026-09-24 19:44:42.408153344,-0.3064375,4.89102978515625,8.64010107421875,-0.10013485698697935,0.09587379924285258,-0.006391586616190171,31.494321877881653,0.6222888891877457,203.87416796709323
2026-09-24 19:44:42.408153344,-0.39741113281249996,4.88624169921875,8.637707031249999,-0.08628641931856731,0.09800432811491597,0.022370553156665602,31.438134850622905,0.6683701810099544,203.91100078254834
2026-09-24 19:44:42.439402752,-0.46444433593749995,4.92933447265625,8.66404150390625,-0.06711165946999681,0.09587379924285258,0.049002164057457984,31.392561343463633,0.7063726966168549,203.96076180162885
2026-09-24 19:44:42.455027712,-0.4165634765625,5.003549804687499,8.611372558593748,-0.04261057744126781,0.0905474770626941,0.07989483270237714,31.36074811801685,0.7338114293651377,204.0247601476549
2026-09-24 19:44:42.486277632,-0.49077880859374995,5.04903662109375,8.565885742187499,-0.019174759848570515,0.08522115488253562,0.10972223691126462,31.344067315795975,0.7497502946407727,204.10125363223023
2026-09-24 19:44:42.486277632,-0.42135156249999994,5.14001025390625,8.5467333984375,0.004261057744126781,0.07989483270237714,0.136353847812057,31.342742488100765,0.7545406770984152,204.18923873050252
2026-09-24 19:44:42.486277632,-0.47402050781249994,5.24056005859375,8.551521484375,0.025566346464760685,0.07563377495825037,0.1587244009687226,31.355342217318288,0.7498741293596862,204.2871784186989
2026-09-24 19:44:42.501902592,-0.48599072265625,5.33153369140625,8.58025,0.04048004856920442,0.0660463950339651,0.17789916081729312,31.37886767375694,0.7353207065953804,204.39343099135448
2026-09-24 19:44:42.501902592,-0.47162646484375,5.439265624999999,8.577855957031248,0.0458063707493629,0.05645901510967985,0.19387812735776855,31.407213470373055,0.7113080723507932,204.50463528701027
2026-09-24 19:44:42.501902592,-0.45486816406249997,5.4991166992187495,8.5754619140625,0.04261057744126781,0.03834951969714103,0.2055960361541172,31.43593388899492,0.6757512483122466,204.61705348766893
2026-09-24 19:44:42.501902592,-0.43571582031249995,5.48475244140625,8.5563095703125,0.030892668644919165,0.019174759848570515,0.21198762277030736,31.459652128152996,0.627246049686079,204.72741048554497
2026-09-24 19:44:42.517528832,-0.33756005859375,5.53742138671875,8.544339355468749,0.01597896654047543,0.005326322180158476,0.21624868051443413,31.47479373306134,0.570756599409213,204.8358468261561
2026-09-24 19:44:42.533153024,-0.35910644531249997,5.5541796875,8.57306787109375,-0.0010652644360316954,-0.0031957933080950856,0.21731394495046583,31.480876311348986,0.5079486007884743,204.9422862542306
2026-09-24 19:44:42.564405504,-0.31840771484374997,5.59487841796875,8.5754619140625,-0.017044230976507126,-0.009587379924285258,0.21837920938649752,31.476947102344546,0.4415265630990748,205.0475876357223
2026-09-24 19:44:42.564405504,-0.27531494140624996,5.597272460937499,8.59700830078125,-0.035153726389045944,-0.011717908796348648,0.21837920938649752,31.462923896302836,0.3732759394613206,205.1511031842242
2026-09-24 19:44:42.595652608,-0.27052685546875,5.50390478515625,8.537157226562499,-0.04793689962142629,-0.012783173232380343,0.21731394495046583,31.44027176219454,0.30389184132453206,205.25431669847916
2026-09-24 19:44:42.595652608,-0.2681328125,5.5015107421875,8.56827978515625,-0.059654808417774936,-0.01597896654047543,0.21624868051443413,31.410236654152822,0.23402935154740404,205.35571865856267
2026-09-24 19:44:42.615062528,-0.21306982421874998,5.448841796875,8.6137666015625,-0.06711165946999681,-0.022370553156665602,0.21092235833427567,31.37521857364743,0.1626223408867451,205.4538450558598
2026-09-24 19:44:42.615062528,-0.26573876953125,5.47038818359375,8.5563095703125,-0.07882956826634545,-0.02663161090079238,0.2055960361541172,31.333912433894085,0.09074866706681398,205.54829959606903
2026-09-24 19:44:42.615062528,-0.24658642578124998,5.391384765624999,8.632918945312499,-0.0916127414987258,-0.03408846195301425,0.19813918510189532,31.285326520501087,0.018419448982094154,205.63725568420426
2026-09-24 19:44:42.615062528,-0.20588769531249998,5.33153369140625,8.63531298828125,-0.10333065029507445,-0.044741106313331204,0.18855180517761005,31.22868412709311,359.9434722997426,205.71893668468252
2026-09-24 19:44:42.615062528,-0.201099609375,5.264500488281249,8.589826171875,-0.111852765783328,-0.05752427954571154,0.1810949541253882,31.165755662643452,359.86487741761306,205.79272741346762
2026-09-24 19:44:42.631317504,-0.162794921875,5.24056005859375,8.58025,-0.11930961683554987,-0.0660463950339651,0.17789916081729312,31.098303635109392,359.7827377546149,205.8616801240891
2026-09-24 19:44:42.655675904,-0.11252001953124999,5.163950683593749,8.553915527343749,-0.12037488127158157,-0.07243798165015528,0.17683389638126143,31.029108828651236,359.6970813532926,205.9281643053473
2026-09-24 19:44:42.708625408,-0.059851074218749994,5.161556640624999,8.56827978515625,-0.11717908796348649,-0.07456851052221868,0.17896442525332482,30.960915857321726,359.60958500300325,205.99475305225508
2026-09-24 19:44:42.709214208,-0.0143642578125,5.0993115234375,8.67361767578125,-0.11504855909142309,-0.07456851052221868,0.1832254829974516,30.89364076230753,359.520301227426,206.06286511884892
2026-09-24 19:44:42.731288832,0.011970214843749999,5.10170556640625,8.642495117187499,-0.11078750134729631,-0.07243798165015528,0.19068233404967347,30.827627202484987,359.43017806594384,206.13485994825672
2026-09-24 19:44:42.732884992,0.076609375,5.092129394531249,8.616160644531249,-0.10759170803920122,-0.07243798165015528,0.19707392066586363,30.763489478113282,359.3381434183763,206.21010462333956
2026-09-24 19:44:42.734232832,0.124490234375,5.053824707031249,8.62573681640625,-0.10226538585904274,-0.07030745277809189,0.20453077171808548,30.7023633909634,359.2437087704505,206.28969856050264
2026-09-24 19:44:42.734232832,0.15800683593749998,5.0610068359375,8.66404150390625,-0.09587379924285258,-0.06711165946999681,0.21518341607840244,30.644519872025867,359.1480558656056,206.3747926273719
2026-09-24 19:44:42.770744832,0.14603662109374999,5.04424853515625,8.692770019531249,-0.08948221262666241,-0.06391586616190172,0.22796658931078279,30.58954104091518,359.0501603164665,206.4672199376476
2026-09-24 19:44:42.770744832,0.1963115234375,5.0610068359375,8.69755810546875,-0.08202536157444054,-0.05752427954571154,0.2439455558512582,30.53878727375019,358.95087176553005,206.5690701579824
2026-09-24 19:44:42.771745024,0.20828173828125,5.089735351562499,8.709528320312499,-0.07350324608618697,-0.05219795736555307,0.262055051263797,30.492345606026955,358.84909827529754,206.68123432510922
2026-09-24 19:44:42.801498368,0.229828125,5.06818896484375,8.656859375,-0.06285060172587002,-0.04687163518539459,0.28336033998443094,30.451430193211547,358.744273347725,206.80502285182675
2026-09-24 19:44:42.801733120,0.27770898437499997,5.125645996093749,8.6185546875,-0.05326322180158476,-0.04048004856920442,0.30679615757712825,30.41567391310336,358.63595424672627,206.94179261250014
2026-09-24 19:44:42.865413376,0.23701025390624997,5.123251953124999,8.611372558593748,-0.049002164057457984,-0.035153726389045944,0.33023197516982555,30.38323005916534,358.5235404258365,207.09174961165
2026-09-24 19:44:42.865413376,0.2681328125,5.1184638671875,8.582644042968749,-0.0458063707493629,-0.02769687533682408,0.35366779276252286,30.352930536945202,358.40841836517967,207.25593265687536
2026-09-24 19:44:42.865413376,0.26573876953125,5.04424853515625,8.599402343749999,-0.044741106313331204,-0.02024002428460221,0.3771036103552201,30.32192300575189,358.2902311599026,207.43378302961165
2026-09-24 19:44:42.865413376,0.24658642578124998,5.008337890625,8.611372558593748,-0.049002164057457984,-0.014913702104443734,0.4005394279479174,30.288297711518403,358.1684314285806,207.62528399071067
2026-09-24 19:44:42.865413376,0.27531494140624996,4.91018212890625,8.6807998046875,-0.05219795736555307,-0.008522115488253563,0.422909981104583,30.25153084500407,358.0438840969548,207.8295472757399
2026-09-24 19:44:42.865413376,0.32798388671874995,4.828784667968749,8.709528320312499,-0.05645901510967985,-0.004261057744126781,0.44528053426124864,30.210448138502624,357.9149215812944,208.04653123371907
2026-09-24 19:44:42.865413376,0.28967919921874996,4.75217529296875,8.73586279296875,-0.06391586616190172,-0.006391586616190171,0.46019423636569234,30.16360048709976,357.7806592028469,208.27128566468568
2026-09-24 19:44:42.865413376,0.29925537109375,4.64204931640625,8.80289599609375,-0.07137271721412358,-0.006391586616190171,0.47084688072600933,30.110532788463026,357.64320150247806,208.50240381030216
2026-09-24 19:44:42.865413376,0.3064375,4.51755908203125,8.903445800781249,-0.07350324608618697,-0.009587379924285258,0.4804342606502946,30.053217920448358,357.5027487112282,208.73845914259576
2026-09-24 19:44:42.865413376,0.45247412109374996,4.51755908203125,8.865141113281249,-0.06498113059793341,-0.012783173232380343,0.4900216405745798,29.997163493559597,357.3574852887267,208.97787336456747
2026-09-24 19:44:42.865413376,0.47402050781249994,4.519953125,8.8914755859375,-0.044741106313331204,-0.006391586616190171,0.49641322719077,29.95036066886602,357.2114463895268,209.22237459992994
2026-09-24 19:44:42.865413376,0.5003549804687499,4.54149951171875,8.860353027343749,-0.01810949541253882,-0.005326322180158476,0.4974784916268017,29.918021692471658,357.0668932969615,209.46913650161895
2026-09-24 19:44:42.865413376,0.59611669921875,4.6205029296874995,8.853170898437499,0.009587379924285258,-0.009587379924285258,0.49428269831870664,29.901609870578323,356.92135642542553,209.71386658080476
2026-09-24 19:44:42.896800256,0.6846962890624999,4.685142089843749,8.805290039062498,0.04687163518539459,-0.01384843766841204,0.48363005395838965,29.905988376028187,356.77400165852913,209.95254106492996
2026-09-24 19:44:42.896800256,0.6894843749999999,4.83357275390625,8.731074707031249,0.0905474770626941,-0.012783173232380343,0.46658582298188256,29.93581488021358,356.6310812410881,210.18392196020073
2026-09-24 19:44:42.927941632,0.7349711914062499,5.020308105468749,8.71431640625,0.12889699675983513,-0.024501082028728992,0.44101947651712187,29.990583982128175,356.4906314906988,210.401035970776
2026-09-24 19:44:42.927941632,0.9217065429687499,5.233377929687499,8.527581054687499,0.1555286076606275,-0.04154531300523612,0.4133226011802978,30.065499135632944,356.34916646608895,210.5996497015855
2026-09-24 19:44:42.927941632,0.91691845703125,5.439265624999999,8.551521484375,0.16618125202094447,-0.05219795736555307,0.38136466809934694,30.152504192276545,356.20902647812886,210.77879626896478
2026-09-24 19:44:42.964249600,1.01507421875,5.5876962890624995,8.52279296875,0.16192019427681767,-0.06711165946999681,0.3440804128382376,30.241891584431674,356.0721360404414,210.9363248512087
2026-09-24 19:44:42.964249600,1.0102861328125,5.709792480468749,8.49645849609375,0.1352885833760253,-0.08415589044650393,0.30466562870506486,30.322369771086095,355.9379866167896,211.0689775741631
2026-09-24 19:44:42.999513344,1.15632275390625,5.80076611328125,8.472518066406248,0.09267800593475749,-0.10546117916713783,0.25992452239173364,30.382820027918353,355.8059367392827,211.17373322436592
2026-09-24 19:44:42.999513344,1.2401142578125,5.736126953125,8.410272949218749,0.04261057744126781,-0.11078750134729631,0.21624868051443413,30.41676493527153,355.6798854969499,211.25362311432642
2026-09-24 19:44:42.999513344,1.25687255859375,5.721762695312499,8.405484863281249,-0.008522115488253563,-0.10120012142301105,0.1832254829974516,30.422288331727486,355.56803925291416,211.31785580221992
2026-09-24 19:44:43.003139072,1.26644873046875,5.6403652343749995,8.448577636718749,-0.08309062601047223,-0.08415589044650393,0.15978966540475428,30.388405043744214,355.47114242542096,211.3735330519778
2026-09-24 19:44:43.003139072,1.2496904296875,5.5015107421875,8.39590869140625,-0.1629854587128494,-0.06072007285380663,0.14913702104443735,30.30815576138822,355.38919244278605,211.4292537951157
2026-09-24 19:44:43.038870272,1.27602490234375,5.29801708984375,8.40787890625,-0.23648870479903636,-0.025566346464760685,0.14700649217237394,30.182352938205298,355.32330109174075,211.49241471620695
2026-09-24 19:44:43.062684672,1.1730810546875,5.0993115234375,8.5084287109375,-0.2908171910366528,0.012783173232380343,0.15020228548046904,30.018776501500465,355.2779954727174,211.5682408648929
2026-09-24 19:44:43.062684672,1.0797133789062499,4.845542968749999,8.549127441406249,-0.32170985968157195,0.03834951969714103,0.16192019427681767,29.830652088163262,355.245437327904,211.65726344045115
2026-09-24 19:44:43.093914112,1.01507421875,4.6372612304687495,8.721498535156249,-0.3312972396058572,0.0692421883420602,0.17470336750919802,29.630395484097054,355.22479435859515,211.76102433638044
2026-09-24 19:44:43.093914112,1.03662060546875,4.414615234375,8.6903759765625,-0.32490565298966706,0.09906959255094766,0.1832254829974516,29.427867842929047,355.2175762237199,211.87899787064143
2026-09-24 19:44:43.125164288,0.9528291015624999,4.2374560546875,8.77416748046875,-0.29614351321681126,0.14168016999221547,0.19068233404967347,29.236225944288936,355.22815107410224,212.01154660694655
2026-09-24 19:44:43.125164288,0.8235507812499999,4.0938134765625,8.88429345703125,-0.2514024069034801,0.17257283863713463,0.19920444953792701,29.065340302860644,355.2554920332591,212.15830816649319
2026-09-24 19:44:43.140793344,0.64878564453125,4.0650849609375,8.903445800781249,-0.2002697139739587,0.19707392066586363,0.2077265650261806,28.92095453103106,355.2950415514493,212.3165000118821
2026-09-24 19:44:43.172040192,0.5123251953125,4.0986015625,8.936962402343749,-0.14700649217237394,0.21198762277030736,0.21731394495046583,28.806218278874752,355.3429424722676,212.48401634792617
2026-09-24 19:44:43.179263488,0.40698730468749994,4.18718115234375,9.047088378906249,-0.09800432811491597,0.21624868051443413,0.2247707960026877,28.71978044072752,355.3934871674503,212.65747474045673
2026-09-24 19:44:43.203649536,0.29925537109375,4.2685786132812495,9.0446943359375,-0.05645901510967985,0.21198762277030736,0.23009711818284617,28.659438210873677,355.44262057943047,212.83315677031857
2026-09-24 19:44:43.203649536,0.13167236328124998,4.45052587890625,9.12369775390625,-0.024501082028728992,0.19707392066586363,0.23222764705490956,28.620247980288188,355.4865089438747,213.00681784261172
2026-09-24 19:44:43.203649536,0.13167236328124998,4.6300791015625,9.059058593749999,-0.005326322180158476,0.17150757420110294,0.23009711818284617,28.596073205782314,355.5207662029378,213.1734833428568
2026-09-24 19:44:43.250495488,0.07900341796874999,4.7425991210937495,9.092575195312499,0.0,0.14061490555618378,0.2269013248747511,28.579607324943847,355.5410284148858,213.3304520973612
2026-09-24 19:44:43.250495488,0.15321875,4.76893359375,8.9680849609375,-0.0010652644360316954,0.10439591473110614,0.22050973825856093,28.56538188535712,355.5461921093066,213.47499047334318
2026-09-24 19:44:43.250495488,0.15321875,4.8144204101562496,8.932174316406249,-0.007456851052221867,0.07137271721412358,0.21198762277030736,28.55010554836333,355.5353858562951,213.60620241511145
2026-09-24 19:44:43.281746944,0.17715917968749997,4.8838476562499995,8.8627470703125,-0.01810949541253882,0.03834951969714103,0.2013349784099904,28.53148831324666,355.5106495343459,213.72289379112993
2026-09-24 19:44:43.281746944,0.24898046875,4.96285107421875,8.857958984375,-0.03195793308095086,0.005326322180158476,0.19494339179380024,28.50691532656184,355.47100022511825,213.82642611453315
2026-09-24 19:44:43.281746944,0.17476513671875,5.04424853515625,8.77895556640625,-0.054328486237616457,-0.02876213977285577,0.18855180517761005,28.47303092921363,355.4161397837284,213.917788606719
2026-09-24 19:44:43.281746944,0.33037792968749996,5.020308105468749,8.699952148437498,-0.07350324608618697,-0.06072007285380663,0.17789916081729312,28.429317044099736,355.3468427629091,213.99466805445542
2026-09-24 19:44:43.281746944,0.32798388671874995,4.95806298828125,8.731074707031249,-0.08628641931856731,-0.07456851052221868,0.16724651645697616,28.378415669900694,355.2695012247921,214.0613982609832
2026-09-24 19:44:43.281746944,0.31840771484374997,4.9006059570312495,8.6903759765625,-0.09800432811491597,-0.09693906367888427,0.15339807878856412,28.320953922936198,355.1866286027817,214.11627456729963
2026-09-24 19:44:43.281746944,0.31840771484374997,4.828784667968749,8.75022705078125,-0.111852765783328,-0.12570120345174005,0.14168016999221547,28.257134518225865,355.0933561934003,214.1570943473274
2026-09-24 19:44:43.281746944,0.34234814453124995,4.7832978515625,8.7957138671875,-0.11824435239951818,-0.1555286076606275,0.12570120345174005,28.18847892649666,354.9893516316582,214.18285359280102
2026-09-24 19:44:43.297371136,0.39022900390625,4.668383789062499,8.81726025390625,-0.12463593901570835,-0.18748654074157836,0.10865697247523291,28.1170100960292,354.8735636314876,214.19175501497364
2026-09-24 19:44:43.297371136,0.48838476562499994,4.60374462890625,8.87471728515625,-0.12463593901570835,-0.21837920938649752,0.08628641931856731,28.04525971374017,354.74741466102324,214.18172565270282
2026-09-24 19:44:43.344246784,0.99352783203125,4.57501611328125,8.920204101562499,-0.10865697247523291,-0.26844663787998724,-0.03728425526110934,27.684430310465814,353.94912844005063,213.8154624002667
2026-09-24 19:44:43.375495424,1.062955078125,4.6013505859374995,8.95132666015625,-0.11078750134729631,-0.2748382244961774,-0.05326322180158476,27.630402809381167,353.82497710219826,213.71736391466578
2026-09-24 19:44:43.422370304,1.10844189453125,4.62768505859375,9.01835986328125,-0.1129180302193597,-0.2748382244961774,-0.0681769239060285,27.576379851919285,353.7030464666076,213.61112967338227
2026-09-24 19:44:43.422370304,1.1826572265625,4.644443359375,8.9393564453125,-0.11504855909142309,-0.27590348893220906,-0.08096009713840883,27.52238172970383,353.58340714160295,213.49776392284795
2026-09-24 19:44:43.437333504,1.2209619140624999,4.685142089843749,8.9393564453125,-0.11717908796348649,-0.2748382244961774,-0.09267800593475749,27.468678808405393,353.4665074366839,213.37893868685038
2026-09-24 19:44:43.437333504,1.2544785156249998,4.771327636718749,8.94653857421875,-0.12463593901570835,-0.2737729600601457,-0.09906959255094766,27.412899685119726,353.35252153568837,213.25592199274266
2026-09-24 19:44:43.469822976,1.3167236328124998,4.7425991210937495,8.869929199218749,-0.1374191122480887,-0.26525084457189213,-0.10120012142301105,27.351352957553516,353.2424685742543,213.13341058285025
2026-09-24 19:44:43.469822976,1.3646044921874998,4.721052734374999,8.865141113281249,-0.15339807878856412,-0.25779399351967025,-0.10120012142301105,27.281314268485094,353.1359444411802,213.01238766136441
2026-09-24 19:44:43.469822976,1.39812109375,4.7449931640625,8.90823388671875,-0.16724651645697616,-0.24714134915935332,-0.09693906367888427,27.20265449302654,353.0325056284015,212.89601934532092
2026-09-24 19:44:43.469822976,1.4436079101562498,4.685142089843749,8.8627470703125,-0.17789916081729312,-0.23329291149094128,-0.0905474770626941,27.116710498084625,352.9341943261487,212.78615335593975
2026-09-24 19:44:43.469822976,1.4675483398437499,4.65641357421875,8.896263671875,-0.18855180517761005,-0.21624868051443413,-0.07989483270237714,27.023483696184776,352.84085917125776,212.68542979123055
2026-09-24 19:44:43.469822976,1.4364257812499999,4.665989746093749,8.88908154296875,-0.19707392066586363,-0.19707392066586363,-0.06498113059793341,26.923715040129103,352.7534370671504,212.59702385325696
2026-09-24 19:44:43.469822976,1.48670068359375,4.5678339843749995,8.87950537109375,-0.20453077171808548,-0.1757686319452297,-0.04687163518539459,26.818147479834092,352.67252492390173,212.52293748425714
2026-09-24 19:44:43.469822976,1.4938828124999999,4.5247412109375,8.88429345703125,-0.20879182946221228,-0.1555286076606275,-0.02769687533682408,26.706880166620657,352.59667903322537,212.46424461811856
2026-09-24 19:44:43.485448448,1.4531840820312498,4.5151650390624996,8.94653857421875,-0.20985709389824397,-0.1352885833760253,-0.005326322180158476,26.592192892192315,352.5261362648652,212.42182153773163
2026-09-24 19:44:43.485448448,1.42445556640625,4.472072265625,8.896263671875,-0.20879182946221228,-0.11717908796348649,0.014913702104443734,26.47597602142344,352.4595848838732,212.39577856931
2026-09-24 19:44:43.485448448,1.3071474609374998,4.41700927734375,8.941750488281249,-0.20985709389824397,-0.10546117916713783,0.03728425526110934,26.35735731172456,352.3950864362855,212.385022030219
2026-09-24 19:44:43.516697600,1.2856010742187498,4.395462890625,8.94414453125,-0.21092235833427567,-0.10120012142301105,0.05752427954571154,26.23617921667529,352.3297766655458,212.38656851450037
2026-09-24 19:44:43.516697600,1.2808129882812498,4.3619462890625,8.88429345703125,-0.21198762277030736,-0.09800432811491597,0.07563377495825037,26.11284867041466,352.26153024209356,212.39903120742906
2026-09-24 19:44:43.564477440,1.2496904296875,4.37870458984375,8.896263671875,-0.21624868051443413,-0.09587379924285258,0.09480853480682087,25.986683211490963,352.1897187783839,212.42172525312736
2026-09-24 19:44:43.564477440,1.26166064453125,4.369128417968749,8.932174316406249,-0.21624868051443413,-0.0905474770626941,0.11504855909142309,25.858430302712634,352.11643191512496,212.45656658739313
2026-09-24 19:44:43.611267840,1.2018095703124998,4.395462890625,9.05666455078125,-0.21411815164237075,-0.08735168375459901,0.13422331893999362,25.729362846268607,352.04002549147543,212.50222485167208
2026-09-24 19:44:43.626951936,1.2161738281249999,4.3427939453125,9.06624072265625,-0.21731394495046583,-0.08841694819063071,0.15446334322459582,25.597288608302204,351.95998072978813,212.55851593895488
2026-09-24 19:44:43.658430976,1.17068701171875,4.3236416015625,9.097363281249999,-0.21837920938649752,-0.09267800593475749,0.17044230976507124,25.462869683142777,351.87353962849744,212.62355577543394
2026-09-24 19:44:43.658430976,1.22335595703125,4.2685786132812495,9.104545410156248,-0.21624868051443413,-0.10333065029507445,0.1832254829974516,25.327863727091824,351.7800951426474,212.6936788279023
2026-09-24 19:44:43.658430976,1.2592666015624998,4.33082373046875,9.059058593749999,-0.21624868051443413,-0.11398329465539139,0.19494339179380024,25.1927248684514,351.67774612128926,212.76698958770112
2026-09-24 19:44:43.658430976,1.32869384765625,4.37870458984375,8.9968134765625,-0.21944447382252924,-0.12144014570761326,0.2013349784099904,25.05643062590465,351.5688277905083,212.84226772314184
2026-09-24 19:44:43.658430976,1.4053032226562499,4.352370117187499,9.042300292968749,-0.23116238261887787,-0.12463593901570835,0.2066613005901489,24.91587500370446,351.4561041432775,212.91975100579955
2026-09-24 19:44:43.658430976,1.446001953125,4.349976074218749,9.06624072265625,-0.248206613595385,-0.12570120345174005,0.2055960361541172,24.76590362756813,351.34229487284466,212.99785016635036
2026-09-24 19:44:43.658430976,1.4531840820312498,4.33082373046875,9.068634765625,-0.2641855801358604,-0.12996226119586682,0.2034655072820538,24.60678955022766,351.2273262307598,213.07475289425614
2026-09-24 19:44:43.658430976,1.53458154296875,4.30688330078125,9.020753906249999,-0.27590348893220906,-0.13422331893999362,0.2013349784099904,24.440114248456858,351.1103581192822,213.14961715218132
2026-09-24 19:44:43.658430976,1.618373046875,4.282942871093749,9.01835986328125,-0.2876213977285577,-0.1310275256318985,0.2013349784099904,24.26731743898052,350.9944489200517,213.22417673605707
2026-09-24 19:44:43.658430976,1.7261049804687498,4.280548828124999,8.95611474609375,-0.2950782487807796,-0.12250541014364495,0.20453077171808548,24.088935932294383,350.8811635825779,213.3025712324909
2026-09-24 19:44:43.658430976,1.7644096679687498,4.25900244140625,9.092575195312499,-0.3004045709609381,-0.10439591473110614,0.20985709389824397,23.9062315215462,350.7736072242325,213.38759974717715
2026-09-24 19:44:43.658430976,1.8362309570312498,4.25900244140625,9.06624072265625,-0.31212247975728674,-0.08735168375459901,0.21837920938649752,23.716045633370964,350.67350545107024,213.48137962483293
2026-09-24 19:44:43.674057216,1.8745356445312498,4.1967573242187495,9.011177734375,-0.32490565298966706,-0.07563377495825037,0.22264026713062432,23.51774148979558,350.57937477962906,213.58143688507008
2026-09-24 19:44:43.674057216,1.8673535156249998,4.160846679687499,9.0351181640625,-0.3334277684779206,-0.059654808417774936,0.22903185374681448,23.31283501100716,350.49176261971263,213.68775687554626
2026-09-24 19:44:43.720929792,1.8888999023437498,4.177604980468749,9.0782109375,-0.34514567727426926,-0.04793689962142629,0.23329291149094128,23.100392469225188,350.41035470694635,213.79997015920318
2026-09-24 19:44:43.720929792,1.91762841796875,4.1704228515625,9.02793603515625,-0.3547330571985545,-0.03302319751698255,0.23648870479903636,22.881653324546267,350.3355738402375,213.91720537539413
2026-09-24 19:44:43.720929792,1.9272045898437498,4.18718115234375,9.063846679687499,-0.3675162304309349,-0.017044230976507126,0.24288029141522652,22.655199007108273,350.26844471741117,214.0417677787461
2026-09-24 19:44:43.768101120,1.9200224609374998,4.16324072265625,9.047088378906249,-0.3834951969714103,0.0021305288720633907,0.25566346464760686,22.418640468956664,350.2094004752493,214.17638412876005
2026-09-24 19:44:43.768101120,1.8912939453125,4.124936035156249,9.08539306640625,-0.4048004856920442,0.019174759848570515,0.2716424311880823,22.168158147914628,350.1577157101963,214.32357548321934
2026-09-24 19:44:43.768101120,1.886505859375,4.0267802734375,9.152426269531249,-0.42184471666855133,0.03302319751698255,0.2918824554726845,21.90474631761031,350.1100411399424,214.48477702108218
2026-09-24 19:44:43.830596864,1.78116796875,3.9070781249999995,9.19551904296875,-0.43462788990093165,0.04154531300523612,0.311057215321255,21.62910994691244,350.0656049391589,214.65904633343467
2026-09-24 19:44:43.830596864,1.771591796875,3.7754057617187495,9.197913085937499,-0.44101947651712187,0.04261057744126781,0.3259709174256988,21.346370598251067,350.021213691423,214.8433387638668
2026-09-24 19:44:43.830596864,1.7261049804687498,3.8376508789062496,9.21227734375,-0.43995421208109015,0.04154531300523612,0.3408846195301425,21.061976512963465,349.9739286507218,215.03564885801273
2026-09-24 19:44:43.861850368,1.7763798828125,3.9525649414062496,9.241005859374999,-0.447411063133312,0.04154531300523612,0.35792885050664963,20.774239709725837,349.92462902208393,215.23665817717728
2026-09-24 19:44:43.861850368,1.8266547851562498,4.0076279296875,9.226641601562498,-0.4676510874179142,0.04154531300523612,0.37603834591918844,20.477054183014282,349.87183541846736,215.44674868037694
2026-09-24 19:44:43.861850368,1.8888999023437498,3.9501708984374995,9.252976074218749,-0.5091964004231504,0.05113269292952137,0.4026699568199808,20.156793347867794,349.8196734649252,215.67203910575913
2026-09-24 19:44:43.861850368,1.8817177734375,3.8544091796874995,9.298462890624998,-0.5560680356085449,0.0692421883420602,0.43249736102886827,19.806805103521537,349.77020128559275,215.9165826678488
2026-09-24 19:44:43.861850368,1.8122905273437497,3.7538593749999998,9.231429687499999,-0.5933522908696542,0.08202536157444054,0.4676510874179142,19.427804412479738,349.72444153456144,216.18337627308583
2026-09-24 19:44:43.861850368,1.7883500976562499,3.6868261718749995,9.219459472656249,-0.611461786282193,0.0905474770626941,0.5091964004231504,19.03132743634788,349.678755515686,216.4742823638228
2026-09-24 19:44:43.877500416,1.7165288085937498,3.6078227539062495,9.274522460937499,-0.632767075002827,0.0905474770626941,0.5475459201202914,18.61972982888731,349.6297012664136,216.78803332828613
2026-09-24 19:44:43.877500416,1.68780029296875,3.4689682617187496,9.32719140625,-0.6615292147756827,0.08415589044650393,0.5848301753814007,18.188584107203297,349.57420402996377,217.12160731905038
2026-09-24 19:44:43.924345344,1.6590717773437498,3.3301137695312497,9.36789013671875,-0.6838997679323484,0.07776430383031376,0.6167881084623515,17.739293640758966,349.51190911797977,217.47355557218526
2026-09-24 19:44:43.924345344,1.7356811523437499,3.1745009765625,9.37746630859375,-0.6934871478566337,0.07243798165015528,0.6466155126712391,17.277591563124705,349.4441739043191,217.84183512963443
2026-09-24 19:44:43.924345344,1.7261049804687498,3.0547988281249996,9.37746630859375,-0.6977482056007605,0.07243798165015528,0.6732471235720314,16.80912479930859,349.37373235165126,218.2260724860293
2026-09-24 19:44:43.924345344,1.8170786132812498,2.9350966796874998,9.391830566406249,-0.6945524122926653,0.07350324608618697,0.7020092633448872,16.337494977032616,349.3020554521901,218.6266589393303
2026-09-24 19:44:43.924345344,1.80271435546875,2.8345468749999996,9.458863769531249,-0.6860302968044117,0.08415589044650393,0.7318366675537746,15.86535031060706,349.2326364263043,219.0457434415534
2026-09-24 19:44:43.986844672,1.8146845703124999,2.69808642578125,9.48759228515625,-0.6764429168801265,0.08948221262666241,0.7648598650707572,15.394507461784862,349.16609413033444,219.48496119047363
2026-09-24 19:44:43.986844672,1.7644096679687498,2.5903544921874997,9.51153271484375,-0.6689860658279047,0.09800432811491597,0.7946872692796447,14.922895428640086,349.10285321588475,219.94355202840396
2026-09-24 19:44:43.986844672,1.7165288085937498,2.56880810546875,9.446893554687499,-0.6562028925955243,0.0916127414987258,0.8245146734885321,14.454417784130342,349.03843955752575,220.41923292973743
2026-09-24 19:44:44.049506304,1.7859560546874997,2.55923193359375,9.636022949218749,-0.6540723637234609,0.07882956826634545,0.8490157555172612,13.98735045582475,348.9680910821292,220.90817646544343
2026-09-24 19:44:44.049506304,1.9056582031249998,2.4084072265625,9.68390380859375,-0.6572681570315559,0.07456851052221868,0.870321044237895,13.51589890719647,348.8943152648072,221.40946449755842
2026-09-24 19:44:44.049506304,1.9583271484374998,2.2192778320312496,9.707844238281249,-0.6604639503396511,0.07563377495825037,0.8884305396504338,13.038889976610456,348.82060133479297,221.92254644834549
2026-09-24 19:44:44.049506304,1.9367807617187498,2.039724609375,9.700662109375,-0.6625944792117144,0.07563377495825037,0.9012137128828142,12.556198346780926,348.75011557651857,222.44499056524992
2026-09-24 19:44:44.049506304,1.9631152343749998,1.91762841796875,9.669539550781248,-0.6551376281594926,0.07350324608618697,0.905474770626941,12.074075271932829,348.6824168058632,222.97209674159168
2026-09-24 19:44:44.096385280,2.0899995117187498,1.7859560546874997,9.662357421874999,-0.6359628683109221,0.06391586616190172,0.905474770626941,11.60025853236391,348.6136065855816,223.4995781365892
2026-09-24 19:44:44.096385280,2.2480063476562497,1.7907441406249998,9.71023828125,-0.62211443064251,0.0681769239060285,0.9044095061909093,11.1346310493824,348.54829728632524,224.0266728605704
2026-09-24 19:44:44.096385280,2.3413740234375,1.69737646484375,9.6767216796875,-0.6029396707939395,0.08202536157444054,0.905474770626941,10.67878700194616,348.49198320242954,224.55579507958154
2026-09-24 19:44:44.112011008,2.42037744140625,1.5537338867187498,9.68869189453125,-0.5816343820733056,0.11078750134729631,0.9022789773188459,10.23401112698793,348.45290179465604,225.08691346092783
2026-09-24 19:44:44.112011008,2.30546337890625,1.4364257812499999,9.7437548828125,-0.5613943577887034,0.14274543442824716,0.8980179195747191,9.799385058501507,348.43620545269266,225.61962153338118
2026-09-24 19:44:44.112011008,2.26715869140625,1.37178662109375,9.76530126953125,-0.545415391248228,0.15339807878856412,0.8873652752144021,9.374807291091026,348.43415124916277,226.14902796898596
2026-09-24 19:44:44.112011008,2.27912890625,1.2425083007812499,9.73178466796875,-0.5262406313996575,0.1587244009687226,0.870321044237895,8.962286522375711,348.4410208981482,226.67044645370672
2026-09-24 19:44:44.112011008,2.3365859374999998,1.1898393554687499,9.695874023437499,-0.5049353426790235,0.16831178089300786,0.8554073421334513,8.563194299154956,348.4579377570802,227.18343478047373
2026-09-24 19:44:44.112011008,2.46347021484375,1.1754750976562498,9.736572753906248,-0.48469531839442137,0.18748654074157836,0.8404936400290076,8.177764336438608,348.4870507354311,227.68850053726166
2026-09-24 19:44:44.112011008,2.5376855468749997,0.99831591796875,9.777271484375,-0.45593317862156557,0.21731394495046583,0.8245146734885321,7.809103324153862,348.53513078037105,228.1862554326859
2026-09-24 19:44:44.112011008,2.5975366210937496,0.9097363281249999,9.703056152343748,-0.4186489233604562,0.262055051263797,0.8000135914598031,7.4621682496084745,348.6094669883858,228.6745361239874
2026-09-24 19:44:44.112011008,2.3868608398437496,0.8427031249999999,9.76051318359375,-0.38136466809934694,0.30360036426903314,0.7680556583788523,7.140411776171516,348.7141947993367,229.14792897532902
2026-09-24 19:44:44.112011008,2.3317978515625,0.8666435546874999,9.839516601562499,-0.3611246438147447,0.3131877441933184,0.7265103453736161,6.838224241697514,348.83623499796255,229.59921172491156
2026-09-24 19:44:44.112011008,2.42037744140625,0.8546733398437499,9.76051318359375,-0.346210941710301,0.3185140663734769,0.6828345034963167,6.551530555328505,348.9662621158836,230.02448674674514
2026-09-24 19:44:44.174510336,2.4850166015624997,0.8929780273437499,9.80360595703125,-0.3376888262220474,0.3419498839661742,0.6402239260550489,6.277128938767251,349.1097530306569,230.42488711762408
2026-09-24 19:44:44.174510336,2.4227714843749997,0.8570673828125,9.762907226562499,-0.32916671073379383,0.37390781704712506,0.5986786130498127,6.012898335593149,349.2751592187787,230.80182603020444
2026-09-24 19:44:44.174510336,2.3102514648437498,0.7876401367187499,9.83712255859375,-0.32170985968157195,0.4058657501280759,0.5592638289166401,5.7591942599029,349.4636779778738,231.15650468231496
2026-09-24 19:44:44.221385472,2.24321826171875,0.7062426757812499,9.93767236328125,-0.30679615757712825,0.4293015677207732,0.5123921937312454,5.518239873580681,349.6714108270611,231.48568957784198
2026-09-24 19:44:44.221385472,2.1881552734375,0.6032988281249999,9.940066406249999,-0.2918824554726845,0.44528053426124864,0.46339002967378745,5.291389260826917,349.89367031101375,231.78644520685253
2026-09-24 19:44:44.221385472,2.1450625,0.5123251953125,9.98076513671875,-0.2748382244961774,0.4495415920053754,0.4058657501280759,5.080325160786582,350.12409264233247,232.05505567441298
2026-09-24 19:44:44.299510528,2.1402744140624996,0.507537109375,10.04301025390625,-0.25779399351967025,0.46232476523775573,0.34727620614633264,4.885453063429361,350.36482126021855,232.28902874782125
2026-09-24 19:44:44.299510528,2.0899995117187498,0.47162646484375,10.00470556640625,-0.23861923367109975,0.4697816162899776,0.28655613329252605,4.707996939799188,350.61414674324806,232.4878682216564
2026-09-24 19:44:44.299510528,2.1450625,0.48599072265625,9.97597705078125,-0.21731394495046583,0.48149952508632626,0.2258360604387194,4.5489101907608385,350.8712375600113,232.6507245108222
2026-09-24 19:44:44.299510528,2.1881552734375,0.49077880859374995,9.961612792968749,-0.19600865622983193,0.510261664859182,0.17257283863713463,4.40860502224581,351.1436213130983,232.7814341158183
2026-09-24 19:44:44.346385152,2.11872802734375,0.5554179687499999,9.9257021484375,-0.1821602185614199,0.5432848623761646,0.12676646788777174,4.283123091526301,351.43731260070774,232.8857162669181
2026-09-24 19:44:44.346385152,2.02296630859375,0.51711328125,9.985553222656248,-0.17470336750919802,0.5752427954571154,0.08202536157444054,4.16825157724554,351.75118638934345,232.96467738827153
2026-09-24 19:44:44.346385152,1.9032641601562499,0.42374560546874995,10.04779833984375,-0.17150757420110294,0.6008091419218762,0.04048004856920442,4.058629649883705,352.0838653338374,233.0201646738379
2026-09-24 19:44:44.346385152,1.7572275390624998,0.34474218749999996,9.9831591796875,-0.16405072314888108,0.6178533728983833,-0.004261057744126781,3.954563461789195,352.43025948914755,233.04940714663877
2026-09-24 19:44:44.362011392,1.6423134765624998,0.2537685546875,9.97597705078125,-0.14487596330031055,0.6295712816947319,-0.04793689962142629,3.8628830768702396,352.7861108799686,233.05341072385232
2026-09-24 19:44:44.362011392,1.5489458007812498,0.17237109374999998,10.057374511718749,-0.12037488127158157,0.6380933971829855,-0.0905474770626941,3.787034150607626,353.1496593245342,233.03245622986253
2026-09-24 19:44:44.362011392,1.49148876953125,0.08618554687499999,10.019069824218748,-0.08841694819063071,0.6455502482352073,-0.1320927900679302,3.730196366338198,353.51924734336865,232.987547251475
2026-09-24 19:44:44.362011392,1.3646044921874998,0.055062988281249996,10.019069824218748,-0.05113269292952137,0.6487460415433024,-0.17257283863713463,3.695730995381057,353.8928451372747,232.91894320149308
2026-09-24 19:44:44.362011392,1.2472963867187499,0.06942724609374999,10.0597685546875,-0.01597896654047543,0.6519418348513976,-0.21411815164237075,3.6836279661572804,354.27074240838306,232.82679477078335
2026-09-24 19:44:44.362011392,1.1850512695312498,0.1149140625,10.011887695312499,0.014913702104443734,0.6540723637234609,-0.25246767133951176,3.6922865735959713,354.6515503053604,232.71234623319643
2026-09-24 19:44:44.362011392,1.062955078125,0.23940429687499998,10.00470556640625,0.04048004856920442,0.6572681570315559,-0.28868666216458944,3.718943021940235,355.0348211661515,232.57633823345782
2026-09-24 19:44:44.362011392,0.9815576171874999,0.38544091796874996,10.023857910156249,0.05858954398174324,0.6583334214675877,-0.32170985968157195,3.7591209693042704,355.4205082031809,232.42188758987618
2026-09-24 19:44:44.377635840,0.88818994140625,0.39022900390625,10.0884970703125,0.07350324608618697,0.6572681570315559,-0.34940673501839603,3.809683272560222,355.8079220817743,232.25031261780947
2026-09-24 19:44:44.377635840,0.86185546875,0.48599072265625,10.035828124999998,0.08309062601047223,0.6530070992874292,-0.3824299325353786,3.866585542735053,356.19448383676144,232.0610055611446
2026-09-24 19:44:44.377635840,0.78285205078125,0.48838476562499994,10.064556640625,0.08948221262666241,0.6583334214675877,-0.4101268078722027,3.9281274127857486,356.58348953456976,231.8557359929517
2026-09-24 19:44:44.377635840,0.7277890625,0.56260009765625,10.057374511718749,0.09587379924285258,0.6615292147756827,-0.43675841877299504,3.9926180764790926,356.9757806277867,231.63555250567302
2026-09-24 19:44:44.502635264,0.7158188476562499,0.6392094726562499,10.033434082031249,0.10226538585904274,0.6679208013918729,-0.46339002967378745,4.060153735878616,357.37302879196653,231.40088245824126
2026-09-24 19:44:44.580759040,0.612875,0.6368154296874999,9.9640068359375,0.10546117916713783,0.6785734457521899,-0.48576058283045304,4.1297833968546875,357.7761185734203,231.15338423334873
2026-09-24 19:44:44.580759040,0.507537109375,0.7086367187499999,10.0310400390625,0.11078750134729631,0.6892260901125068,-0.5038700782429919,4.200923150443229,358.18699658161125,230.89655042959993
2026-09-24 19:44:44.596385024,0.44768603515624994,0.7732758789062499,9.9544306640625,0.111852765783328,0.6977482056007605,-0.5219795736555307,4.272612900259028,358.60415357334034,230.63027894172612
2026-09-24 19:44:44.596385024,0.42135156249999994,0.81158056640625,9.9257021484375,0.111852765783328,0.706270321089014,-0.5358280113239428,4.343546335652316,359.0264372575338,230.35608560531372
2026-09-24 19:44:44.643259648,0.36868261718749995,0.86424951171875,9.95921875,0.10333065029507445,0.7147924365772675,-0.5528722423004498,4.408438519481128,359.4544041955617,230.07399771654812
2026-09-24 19:44:44.643259648,0.29207324218749997,0.8020043945312499,9.906549804687499,0.09267800593475749,0.7286408742456796,-0.5688512088409253,4.46534513584651,359.89091061794994,229.7832500398671
2026-09-24 19:44:44.643259648,0.18673535156249998,0.8187626953124999,9.89457958984375,0.08415589044650393,0.7424893119140916,-0.5858954398174324,4.514256082874697,0.33694351704466563,229.48413165191891
2026-09-24 19:44:44.643259648,0.04548681640625,0.8857958984375,9.952036621093749,0.08309062601047223,0.7574030140185354,-0.6029396707939395,4.559048670720674,0.7919175502983253,229.1765632966257
2026-09-24 19:44:44.643259648,-0.11252001953124999,0.8283388671874999,9.9831591796875,0.08522115488253562,0.7648598650707572,-0.6146575795902882,4.602846471296894,1.253823164542459,228.86213196383892
2026-09-24 19:44:44.658884864,-0.23940429687499998,0.8810078124999999,10.007099609374999,0.08735168375459901,0.7701861872509157,-0.6199839017704466,4.645054339684592,1.7210579978101717,228.54371939850736
2026-09-24 19:44:44.658884864,-0.39501708984374995,0.86424951171875,9.973583007812499,0.08841694819063071,0.7659251295067889,-0.6263754883866368,4.685381461151834,2.1878695542029725,228.22212794150747
2026-09-24 19:44:44.658884864,-0.5123251953125,0.88818994140625,9.9640068359375,0.08948221262666241,0.758468278454567,-0.6285060172587003,4.723471708330892,2.6515175693683606,227.89890605715746
2026-09-24 19:44:44.658884864,-0.5841464843749999,0.94085888671875,10.00470556640625,0.08841694819063071,0.7552724851464719,-0.6295712816947319,4.758941241022658,3.1138976143478825,227.57510845781016
2026-09-24 19:44:44.658884864,-0.8020043945312499,0.9600112304687499,10.0310400390625,0.08735168375459901,0.744619840786155,-0.6295712816947319,4.791179355158322,3.571547181209767,227.25103362269692
2026-09-24 19:44:44.658884864,-0.9097363281249999,0.9839516601562499,10.035828124999998,0.08735168375459901,0.7318366675537746,-0.6285060172587003,4.821601825314459,4.024042991744281,226.92713943140222
2026-09-24 19:44:44.658884864,-1.0868955078125,1.04140869140625,10.019069824218748,0.08309062601047223,0.7084008499610773,-0.6306365461307636,4.847875348866278,4.465362598164233,226.60107783448046
2026-09-24 19:44:44.658884864,-1.27123681640625,1.0222563476562498,10.0884970703125,0.07563377495825037,0.6732471235720314,-0.6359628683109221,4.867693705084188,4.889745935068303,226.27134499410766
2026-09-24 19:44:44.658884864,-1.32869384765625,0.96958740234375,10.102861328125,0.0660463950339651,0.6263754883866368,-0.6466155126712391,4.878556412044201,5.290511198311717,225.93356859312598
2026-09-24 19:44:44.658884864,-1.36699853515625,0.9241005859374999,10.10525537109375,0.05645901510967985,0.5816343820733056,-0.6625944792117144,4.880171995656848,5.6651138279412505,225.58474739781482
2026-09-24 19:44:44.658884864,-1.41487939453125,0.9576171874999999,10.107649414062498,0.04793689962142629,0.5400890690680695,-0.6796387101882216,4.87330117129072,6.016634577765879,225.22383423122784
2026-09-24 19:44:44.658884864,-1.47233642578125,1.0198623046875,10.090891113281248,0.03834951969714103,0.5038700782429919,-0.6988134700367921,4.858160321698226,6.346266142609659,224.8503761688895
2026-09-24 19:44:44.658884864,-1.55133984375,0.9839516601562499,10.03822216796875,0.03302319751698255,0.4697816162899776,-0.7105313788331408,4.836564368568629,6.657545467641072,224.46767715886654
2026-09-24 19:44:44.658884864,-1.5848564453124998,0.9911337890624999,10.04301025390625,0.025566346464760685,0.4388889476450585,-0.7190534943213943,4.807724487923227,6.95150481617467,224.0766265715379
2026-09-24 19:44:44.658884864,-1.6471015624999998,0.9815576171874999,10.01667578125,0.01597896654047543,0.41651839448839284,-0.7233145520655211,4.771430479922758,7.230592392141208,223.68181868533037
2026-09-24 19:44:44.674510336,-1.58246240234375,1.0294384765625,9.987947265625,0.005326322180158476,0.39627837020379064,-0.7243798165015528,4.726947422827006,7.497259017215503,223.28435405611648
2026-09-24 19:44:44.674510336,-1.6542836914062498,1.0054980468749999,9.923308105468749,-0.0031957933080950856,0.3898867835876005,-0.7243798165015528,4.674794876148414,7.7577673801774605,222.88577520277732
2026-09-24 19:44:44.674510336,-1.7308930664062498,0.9887397460937499,9.95921875,-0.014913702104443734,0.3866909902795054,-0.7243798165015528,4.6141845674639566,8.016786931799917,222.48689851852114
2026-09-24 19:44:44.674510336,-1.8529892578124998,0.9145244140625,9.93767236328125,-0.025566346464760685,0.37816887479125183,-0.7243798165015528,4.545069510981233,8.272053596107382,222.0868375632125
2026-09-24 19:44:44.674510336,-2.0109960937499998,0.8283388671874999,10.052586425781248,-0.030892668644919165,0.360059379378713,-0.7275756098096479,4.469348434971584,8.518572379745468,221.6838291227947
2026-09-24 19:44:44.737008896,-2.1139399414062496,0.7397592773437499,9.985553222656248,-0.02876213977285577,0.3312972396058572,-0.7307714031177429,4.390515893054431,8.75081495352205,221.27769503409885
2026-09-24 19:44:44.737008896,-2.1953374023437497,0.75891162109375,10.011887695312499,-0.025566346464760685,0.297208777652843,-0.7371629897339331,4.310846447310139,8.965042725967972,220.8654948840076
2026-09-24 19:44:44.815283200,-2.19054931640625,0.7421533203124999,9.949642578125,-0.022370553156665602,0.25566346464760686,-0.7456851052221867,4.230472353252979,9.156104015746273,220.4470463636724
2026-09-24 19:44:44.815283200,-2.1666088867187496,0.7086367187499999,10.01428173828125,-0.021305288720633905,0.21837920938649752,-0.7552724851464719,4.1486303312890165,9.325152612754522,220.02064121523713
2026-09-24 19:44:44.815283200,-2.0876054687499996,0.67751416015625,10.00470556640625,-0.024501082028728992,0.18429074743348328,-0.7669903939428206,4.062658737449497,9.472971735487787,219.58612745633013
2026-09-24 19:44:44.815283200,-2.13788037109375,0.6320273437499999,10.023857910156249,-0.023435817592697295,0.1576591365326909,-0.7787083027391692,3.9744591660976702,9.603168595754163,219.14356013423438
2026-09-24 19:44:44.815283200,-2.1402744140624996,0.612875,10.002311523437498,-0.019174759848570515,0.136353847812057,-0.7946872692796447,3.885045514052032,9.72059602709364,218.6904197289412
2026-09-24 19:44:44.909059328,-2.1761850585937497,0.56738818359375,10.074132812499998,-0.017044230976507126,0.111852765783328,-0.807470442512025,3.7948011105885318,9.823832471465824,218.22822519639558
2026-09-24 19:44:44.909059328,-2.13788037109375,0.48838476562499994,10.107649414062498,-0.004261057744126781,0.08415589044650393,-0.8223841446164688,3.7073131092612237,9.911554391281475,217.75632628016584
2026-09-24 19:44:44.924700672,-2.11872802734375,0.43332177734374994,10.100467285156249,0.011717908796348648,0.05645901510967985,-0.8372978467209125,3.626251684283399,9.982467082032937,217.27436402687476
2026-09-24 19:44:44.924700672,-2.0253603515624996,0.4452919921875,10.033434082031249,0.02663161090079238,0.030892668644919165,-0.8532768132613879,3.5517931397092024,10.037643232248975,216.78252826827466
2026-09-24 19:44:44.987404800,-1.9367807617187498,0.43332177734374994,10.0884970703125,0.04048004856920442,0.019174759848570515,-0.8692557798018633,3.4837370902359526,10.083640479016118,216.28049287586168
2026-09-24 19:44:44.987404800,-1.9487509765624997,0.44768603515624994,10.0597685546875,0.049002164057457984,0.01384843766841204,-0.8863000107783705,3.4190591494562454,10.124162020522533,215.76848652080102
2026-09-24 19:44:44.987404800,-1.9463569335937498,0.43571582031249995,10.050192382812499,0.05858954398174324,0.007456851052221867,-0.9076052994990044,3.3576022051945156,10.161508632410095,215.2438466269935
2026-09-24 19:44:44.987404800,-1.96072119140625,0.45726220703125,10.064556640625,0.06498113059793341,0.0,-0.9267800593475749,3.298025037852689,10.19426453262846,214.70768961936835
2026-09-24 19:44:44.987404800,-1.96550927734375,0.48120263671874997,9.995129394531249,0.07243798165015528,-0.007456851052221867,-0.9448895547601137,3.240878473877524,10.223530599401196,214.16047399560273
2026-09-24 19:44:44.987404800,-1.96072119140625,0.51711328125,10.050192382812499,0.07989483270237714,-0.01597896654047543,-0.9619337857366208,3.1863450661069628,10.247869900573772,213.6033722857688
2026-09-24 19:44:44.987404800,-1.9295986328124999,0.46444433593749995,9.952036621093749,0.08309062601047223,-0.022370553156665602,-0.978978016713128,3.1326807426308467,10.26754965246074,213.03577201855035
2026-09-24 19:44:44.987404800,-1.8529892578124998,0.53387158203125,9.947248535156248,0.08415589044650393,-0.029827404208887468,-0.9970875121256668,3.0780939265241516,10.282861045125506,212.45766670903774
2026-09-24 19:44:44.987404800,-1.86017138671875,0.5242954101562499,10.011887695312499,0.08202536157444054,-0.03195793308095086,-1.0162622719742374,3.021479073079224,10.29528546604397,211.86904262952297
2026-09-24 19:44:44.987404800,-1.8529892578124998,0.51711328125,9.9544306640625,0.07989483270237714,-0.03728425526110934,-1.0333065029507444,2.9608145806758945,10.305675662838931,211.2694058797443
2026-09-24 19:44:44.987404800,-1.8625654296874998,0.45247412109374996,9.923308105468749,0.08202536157444054,-0.03728425526110934,-1.0460896761831249,2.89910190021045,10.314942907126245,210.661619678677
2026-09-24 19:44:44.987404800,-1.90805224609375,0.42374560546874995,9.93767236328125,0.09267800593475749,-0.03728425526110934,-1.0567423205434416,2.8403084120515496,10.324098098375659,210.04687598631924
2026-09-24 19:44:45.003031040,-1.91284033203125,0.40219921875,9.889791503906249,0.10759170803920122,-0.04154531300523612,-1.0610033782875685,2.788669333820289,10.331425271399464,209.42859766524035
2026-09-24 19:44:45.003031040,-1.8577773437499998,0.48599072265625,9.880215332031248,0.12250541014364495,-0.04048004856920442,-1.0610033782875685,2.7460253042153586,10.337486582233963,208.8099566660851
2026-09-24 19:44:45.003031040,-1.8745356445312498,0.5793583984374999,9.9161259765625,0.12783173232380343,-0.03408846195301425,-1.0578075849794735,2.7092389487407003,10.346236743138086,208.19289878000941
2026-09-24 19:44:45.003031040,-1.8314428710937498,0.6296333007812499,9.87063916015625,0.12889699675983513,-0.02663161090079238,-1.0471549406191565,2.675466665006989,10.35833001782147,207.58149430635092
2026-09-24 19:44:45.003031040,-1.86495947265625,0.6655439453124999,9.89936767578125,0.12037488127158157,-0.01810949541253882,-1.034371767386776,2.639386754341872,10.373892785308767,206.9771880189604
2026-09-24 19:44:45.003031040,-1.91284033203125,0.7038486328125,9.913731933593748,0.10972223691126462,-0.01384843766841204,-1.0215885941543958,2.5998479550091163,10.392537770693242,206.38053185519814
2026-09-24 19:44:45.003031040,-1.9535390624999998,0.67751416015625,9.93767236328125,0.09906959255094766,-0.01597896654047543,-1.0077401564859838,2.5555267325899123,10.410660930722507,205.79223993650032
2026-09-24 19:44:45.003031040,-1.9894497070312498,0.6559677734374999,9.990341308593749,0.08628641931856731,-0.019174759848570515,-0.9981527765616984,2.5048791434019124,10.426895968243318,205.21000500902093
2026-09-24 19:44:45.003031040,-1.99184375,0.6176630859375,9.995129394531249,0.07456851052221868,-0.024501082028728992,-0.9938917188175717,2.4472814149645377,10.43985961629506,204.6309513731457
2026-09-24 19:44:45.003031040,-2.0062080078125,0.6583618164062499,9.97597705078125,0.06711165946999681,-0.029827404208887468,-0.9875001322013816,2.3855013109786256,10.448864473827541,204.05481768608016
2026-09-24 19:44:45.081154304,-1.9822675781249999,0.6056928710937499,9.98076513671875,0.059654808417774936,-0.03408846195301425,-0.978978016713128,2.320398148648529,10.45423897828551,203.48263604440444
2026-09-24 19:44:45.081154304,-1.99184375,0.5841464843749999,10.026251953125,0.05326322180158476,-0.04048004856920442,-0.9619337857366208,2.2527115073219264,10.455437211751113,202.91956627115403
2026-09-24 19:44:45.081154304,-1.9272045898437498,0.5554179687499999,9.968794921874998,0.054328486237616457,-0.044741106313331204,-0.9406284970159869,2.1862918259781168,10.452269513471192,202.3678175192536
2026-09-24 19:44:45.081154304,-1.9966318359375,0.5530239257812499,10.035828124999998,0.05539375067364816,-0.04154531300523612,-0.9150621505512262,2.1227699392246167,10.448796705416811,201.83032963860305
2026-09-24 19:44:45.159279360,-1.9726914062499998,0.6463916015625,9.99991748046875,0.05006742849348968,-0.039414784133172724,-0.8884305396504338,2.0616323254647577,10.445372710105866,201.30822923698275
2026-09-24 19:44:45.174904832,-1.9295986328124999,0.6463916015625,9.956824707031249,0.04154531300523612,-0.035153726389045944,-0.8586031354415464,1.9990595615864406,10.442446395725126,200.80337420945438
2026-09-24 19:44:45.174904832,-1.9870556640625,0.6463916015625,9.9640068359375,0.029827404208887468,-0.02876213977285577,-0.8266452023605956,1.933620925427074,10.44212143914396,200.31729665916723
2026-09-24 19:44:45.174904832,-1.9894497070312498,0.641603515625,10.03822216796875,0.017044230976507126,-0.025566346464760685,-0.793622004843613,1.8650968493872129,10.443234757954185,199.8505454398098
2026-09-24 19:44:45.268680192,-2.0109960937499998,0.56260009765625,10.01428173828125,0.007456851052221867,-0.02876213977285577,-0.7595335428905987,1.7935451415000967,10.443039896431971,199.40299694292275
2026-09-24 19:44:45.268680192,-2.020572265625,0.49317285156249996,9.995129394531249,0.0010652644360316954,-0.03728425526110934,-0.7243798165015528,1.7208156029259463,10.437323178765123,198.97561717788875
2026-09-24 19:44:45.284280064,-2.0301484375,0.4979609375,9.987947265625,0.0,-0.0458063707493629,-0.6902913545485385,1.649737867980147,10.425598802916964,198.56793659333744
2026-09-24 19:44:45.347411200,-1.96072119140625,0.47402050781249994,9.94246044921875,0.0,-0.05113269292952137,-0.6530070992874292,1.5823775352897973,10.40918430963286,198.1815993110403
2026-09-24 19:44:45.347411200,-1.9631152343749998,0.45965625,9.949642578125,0.0010652644360316954,-0.05326322180158476,-0.6167881084623515,1.5201838957331184,10.389220168491224,197.81664903128674
2026-09-24 19:44:45.347411200,-1.9319926757812498,0.50514306640625,9.928096191406249,0.0021305288720633907,-0.05326322180158476,-0.5826996465093374,1.4620516622028714,10.36858371068675,197.471910165933
2026-09-24 19:44:45.347411200,-1.8984760742187499,0.43571582031249995,9.9640068359375,0.0,-0.054328486237616457,-0.5496764489923548,1.4072229932340796,10.34644535426244,197.1467872544427
2026-09-24 19:44:45.347411200,-1.9008701171874998,0.43332177734374994,9.928096191406249,0.0,-0.05539375067364816,-0.5198490447834673,1.3545072161016805,10.323125777447347,196.83932874377865
2026-09-24 19:44:45.347411200,-1.91284033203125,0.46444433593749995,9.9257021484375,0.0,-0.05858954398174324,-0.4921521694466432,1.305248291829614,10.29729081413598,196.54832178348198
2026-09-24 19:44:45.347411200,-1.8841118164062498,0.46923242187499997,9.990341308593749,-0.005326322180158476,-0.06285060172587002,-0.4644552941098191,1.2558849570864026,10.269338323394628,196.27318707067656
2026-09-24 19:44:45.362924032,-1.9152343749999998,0.45008007812499995,9.935278320312499,-0.009587379924285258,-0.06391586616190172,-0.43995421208109015,1.206920778716561,10.239592015888837,196.01327326570464
2026-09-24 19:44:45.362924032,-1.8745356445312498,0.46205029296874994,10.01428173828125,-0.01597896654047543,-0.06498113059793341,-0.41438786561632945,1.1576835810726234,10.208576310550766,195.76797115007676
2026-09-24 19:44:45.362924032,-1.8458071289062499,0.42613964843749996,10.07173876953125,-0.02024002428460221,-0.06072007285380663,-0.38882151915156876,1.108025974478961,10.17869516648867,195.53731019380047
2026-09-24 19:44:45.362924032,-1.8482011718749998,0.41416943359374997,10.033434082031249,-0.022370553156665602,-0.059654808417774936,-0.3621899082507764,1.0595359126999535,10.149150258290147,195.32248915458158
2026-09-24 19:44:45.362924032,-1.8960820312499997,0.40698730468749994,10.002311523437498,-0.025566346464760685,-0.06391586616190172,-0.335558297349984,1.0121898323337566,10.118108166858326,195.12320641446976
2026-09-24 19:44:45.362924032,-1.9056582031249998,0.46205029296874994,10.00949365234375,-0.035153726389045944,-0.07456851052221868,-0.3131877441933184,0.9634722143564122,10.08170164662253,194.93758180678134
2026-09-24 19:44:45.362924032,-1.8529892578124998,0.42135156249999994,10.019069824218748,-0.04687163518539459,-0.08415589044650393,-0.2918824554726845,0.910638509048777,10.03881843175713,194.76406616754727
2026-09-24 19:44:45.362924032,-1.8170786132812498,0.35910644531249997,10.052586425781248,-0.05752427954571154,-0.08841694819063071,-0.2737729600601457,0.8533343369060757,9.991973430117396,194.60194069542828
2026-09-24 19:44:45.362924032,-1.7931381835937499,0.36628857421875,10.045404296874999,-0.06285060172587002,-0.08841694819063071,-0.2545982002115752,0.7932429627405889,9.944120725808217,194.45063285930362
2026-09-24 19:44:45.362924032,-1.7763798828125,0.34474218749999996,9.947248535156248,-0.0681769239060285,-0.08522115488253562,-0.23542344036300467,0.7325234665300485,9.896785364068219,194.31092879485004
2026-09-24 19:44:45.362924032,-1.6542836914062498,0.32319580078125,9.9161259765625,-0.07350324608618697,-0.08202536157444054,-0.21305288720633905,0.6715829328646288,9.850776747567192,194.1833998465161
2026-09-24 19:44:45.362924032,-1.618373046875,0.33277197265624997,9.896973632812498,-0.07989483270237714,-0.07137271721412358,-0.19068233404967347,0.6094926278103356,9.808522219738274,194.06927692270432
2026-09-24 19:44:45.362924032,-1.5369755859374998,0.24658642578124998,9.949642578125,-0.08735168375459901,-0.05752427954571154,-0.16937704532903955,0.5450066492310168,9.773329493385829,193.9676728282989
2026-09-24 19:44:45.362924032,-1.5561279296875,0.20588769531249998,9.990341308593749,-0.08841694819063071,-0.04261057744126781,-0.14913702104443735,0.48068571744129146,9.745895468430684,193.87844526381437
2026-09-24 19:44:45.362924032,-1.5321874999999998,0.13885449218749998,9.995129394531249,-0.08415589044650393,-0.02769687533682408,-0.1352885833760253,0.41870835859687766,9.726874556595044,193.7975700806873
2026-09-24 19:44:45.362924032,-1.5800683593749998,0.04548681640625,10.100467285156249,-0.07456851052221868,-0.014913702104443734,-0.12144014570761326,0.36228318888405525,9.715300187424752,193.7250493090136
2026-09-24 19:44:45.362924032,-1.5680981445312498,0.09576171874999999,10.057374511718749,-0.06285060172587002,-0.007456851052221867,-0.10865697247523291,0.313084305654143,9.709036892861599,193.6601738062325
2026-09-24 19:44:45.362924032,-1.560916015625,0.09336767578124999,9.9640068359375,-0.05219795736555307,0.0010652644360316954,-0.09480853480682087,0.2723618719514751,9.707124571961275,193.60319521195254
2026-09-24 19:44:45.456678144,-1.52979345703125,0.13646044921875,10.011887695312499,-0.044741106313331204,0.012783173232380343,-0.08202536157444054,0.23751684502221848,9.712038970831077,193.5540365470925
2026-09-24 19:44:45.456678144,-1.55133984375,0.1675830078125,9.956824707031249,-0.04048004856920442,0.02769687533682408,-0.0681769239060285,0.20693894700855006,9.724220421771298,193.51272987674767
2026-09-24 19:44:45.456678144,-1.59203857421875,0.13167236328124998,10.0214638671875,-0.04261057744126781,0.04154531300523612,-0.05326322180158476,0.17813401095177805,9.7452991156818,193.47986678470912
2026-09-24 19:44:45.566053120,-1.64949560546875,0.124490234375,10.023857910156249,-0.04154531300523612,0.05113269292952137,-0.04048004856920442,0.1501867618347632,9.772823220430416,193.45437388643916
2026-09-24 19:44:45.566053120,-1.7213168945312498,0.09815576171875,10.064556640625,-0.035153726389045944,0.05752427954571154,-0.025566346464760685,0.12596669445370023,9.805412341728555,193.43751769559907
2026-09-24 19:44:45.566053120,-1.8170786132812498,0.11252001953124999,10.05498046875,-0.029827404208887468,0.05752427954571154,-0.010652644360316953,0.10666457246152122,9.83931988271009,193.4292856487486
2026-09-24 19:44:45.691167232,-1.8194726562499999,0.08379150390625,10.064556640625,-0.024501082028728992,0.05006742849348968,0.0021305288720633907,0.09168912690819571,9.871151009806498,193.42972810998944
2026-09-24 19:44:45.691167232,-1.8625654296874998,0.14124853515625,9.9975234375,-0.024501082028728992,0.04154531300523612,0.012783173232380343,0.07874585721155869,9.89776168972319,193.43636024415588
2026-09-24 19:44:45.785268224,-1.8936879882812498,0.12209619140624998,10.019069824218748,-0.02876213977285577,0.022370553156665602,0.023435817592697295,0.052318476174499536,9.93537668569168,193.46024491598877
2026-09-24 19:44:45.785839104,-1.9822675781249999,0.08618554687499999,10.052586425781248,-0.03302319751698255,0.008522115488253563,0.025566346464760685,0.0366429561381272,9.944774901265104,193.47588272967832
2026-09-24 19:44:45.785839104,-1.9870556640625,0.0383046875,10.0214638671875,-0.035153726389045944,-0.005326322180158476,0.029827404208887468,0.02015885398684144,9.94665659868629,193.4932837512981
2026-09-24 19:44:45.785839104,-1.9559331054687499,0.04548681640625,9.961612792968749,-0.030892668644919165,-0.023435817592697295,0.02876213977285577,0.005106564855755078,9.938463976476356,193.51061371973478
2026-09-24 19:44:45.785839104,-1.9798735351562498,0.06463916015625,9.973583007812499,-0.02876213977285577,-0.04261057744126781,0.02876213977285577,359.99136722882804,9.919594424639204,193.52796261823312
2026-09-24 19:44:45.785839104,-1.9032641601562499,0.07900341796874999,9.93288427734375,-0.030892668644919165,-0.059654808417774936,0.02663161090079238,359.97742531084174,9.89005182897367,193.54443479142162
2026-09-24 19:44:45.785839104,-1.8003203124999998,0.10533789062499999,9.896973632812498,-0.035153726389045944,-0.07350324608618697,0.021305288720633905,359.9607721545498,9.851380317181869,193.55846790529637
2026-09-24 19:44:45.785839104,-1.7739858398437498,0.04548681640625,9.90894384765625,-0.043675841877299504,-0.07989483270237714,0.019174759848570515,359.9398108523871,9.806984519556774,193.57070723740134
2026-09-24 19:44:45.785839104,-1.7476513671874998,0.00718212890625,9.928096191406249,-0.04687163518539459,-0.08202536157444054,0.01384843766841204,359.91473042260964,9.760943341030064,193.58007723433172
2026-09-24 19:44:45.785839104,-1.7428632812499998,0.0,9.944854492187499,-0.0458063707493629,-0.08096009713840883,0.014913702104443734,359.889400633154,9.71502765800223,193.58912385714672
2026-09-24 19:44:45.785839104,-1.74525732421875,-0.0047880859375,9.990341308593749,-0.04154531300523612,-0.08202536157444054,0.01597896654047543,359.8663405362907,9.669441765508214,193.59846088089057
2026-09-24 19:44:45.785839104,-1.7835620117187498,0.0,10.019069824218748,-0.03195793308095086,-0.0905474770626941,0.017044230976507126,359.8479338981244,9.619623489395822,193.60874036047173
2026-09-24 19:44:45.785839104,-1.7404692382812499,-0.07182128906249999,10.062162597656249,-0.02024002428460221,-0.09693906367888427,0.02024002428460221,359.8362460097494,9.565862244694951,193.6205486557185
2026-09-24 19:44:45.785839104,-1.68780029296875,-0.04069873046875,10.052586425781248,-0.007456851052221867,-0.10226538585904274,0.019174759848570515,359.83130696122777,9.508631641821028,193.6323288614697
2026-09-24 19:44:45.785839104,-1.6423134765624998,0.03112255859375,10.074132812499998,0.0,-0.10120012142301105,0.021305288720633905,359.83289118438734,9.450302126994352,193.64513606575352
2026-09-24 19:44:45.785839104,-1.6542836914062498,0.03112255859375,10.112437499999999,0.0031957933080950856,-0.09906959255094766,0.024501082028728992,359.838283543302,9.392277444113317,193.65956679621326
2026-09-24 19:44:45.785839104,-1.63991943359375,0.035910644531249994,10.074132812499998,0.006391586616190171,-0.09480853480682087,0.02876213977285577,359.8456985324504,9.336185552383393,193.67612354193162
2026-09-24 19:44:45.785839104,-1.6614658203125,0.1292783203125,10.107649414062498,0.009587379924285258,-0.09374327037078918,0.039414784133172724,359.8558406914455,9.281831983960775,193.69828257724487
2026-09-24 19:44:45.801345792,-1.6542836914062498,0.1005498046875,10.07173876953125,0.010652644360316953,-0.0905474770626941,0.05006742849348968,359.86856260238795,9.229730030138548,193.7264165063067
2026-09-24 19:44:45.801345792,-1.6901943359374998,0.14364257812499998,10.04301025390625,0.012783173232380343,-0.08841694819063071,0.06285060172587002,359.8837011643479,9.178223855477821,193.76190738882215
2026-09-24 19:44:45.801345792,-1.63513134765625,0.162794921875,10.09328515625,0.012783173232380343,-0.08522115488253562,0.07776430383031376,359.90059317730623,9.128645765556074,193.80609516262535
2026-09-24 19:44:45.801345792,-1.6064028320312498,0.1675830078125,10.07652685546875,0.012783173232380343,-0.08309062601047223,0.0916127414987258,359.91892327692995,9.080554754028887,193.85832539269938
2026-09-24 19:44:45.801345792,-1.6542836914062498,0.19391748046875,10.002311523437498,0.008522115488253563,-0.07882956826634545,0.10439591473110614,359.93678230362644,9.034400187441342,193.91733226671295
2026-09-24 19:44:45.801345792,-1.5992207031249999,0.17955322265624998,10.09328515625,0.005326322180158476,-0.07669903939428206,0.11717908796348649,359.9539253000961,8.990390786129504,193.98407996012014
2026-09-24 19:44:45.801345792,-1.6159790039062498,0.15800683593749998,10.090891113281248,0.004261057744126781,-0.07350324608618697,0.12889699675983513,359.97066304571104,8.947950535063676,194.05817353247917
2026-09-24 19:44:45.801345792,-1.5944326171874998,0.17237109374999998,10.07173876953125,0.004261057744126781,-0.07137271721412358,0.14061490555618378,359.9883041823677,8.907019335332068,194.1387237219445
2026-09-24 19:44:45.801345792,-1.6327373046874998,0.201099609375,10.078920898437499,0.0010652644360316954,-0.07563377495825037,0.15126754991650074,0.0057644573832206945,8.864626276581506,194.22575219870768
2026-09-24 19:44:45.801345792,-1.63513134765625,0.18434130859374998,10.019069824218748,0.0,-0.08096009713840883,0.16085492984078598,0.023044366184498146,8.819767034445821,194.31865505932737
2026-09-24 19:44:45.801345792,-1.6255551757812499,0.18912939453125,10.07173876953125,-0.0031957933080950856,-0.08948221262666241,0.16724651645697616,0.03825708685050249,8.77033729364164,194.41582015170957
2026-09-24 19:44:45.801345792,-1.58246240234375,0.15082470703124998,10.066950683593749,-0.008522115488253563,-0.09693906367888427,0.17363810307316632,0.05080785132293709,8.716507718755658,194.51664686462277
2026-09-24 19:44:45.801345792,-1.5561279296875,0.13406640625,9.9831591796875,-0.008522115488253563,-0.10226538585904274,0.1810949541253882,0.06260288367007318,8.65903880852264,194.62140301072583
2026-09-24 19:44:45.801345792,-1.5752802734374998,0.09336767578124999,9.985553222656248,-0.004261057744126781,-0.10652644360316953,0.19281286292173686,0.07696375949458913,8.598912722565425,194.73224009824534
2026-09-24 19:44:45.801345792,-1.5273994140624998,0.12688427734375,10.033434082031249,-0.0031957933080950856,-0.111852765783328,0.2034655072820538,0.09317251445459275,8.535942171914487,194.84888239579186
2026-09-24 19:44:45.801345792,-1.4747304687499998,0.1292783203125,10.0884970703125,0.0,-0.111852765783328,0.21731394495046583,0.11290736585606821,8.471514695176216,194.97350944967783
2026-09-24 19:44:45.801345792,-1.5010649414062498,0.076609375,10.035828124999998,0.005326322180158476,-0.10972223691126462,0.23755396923506805,0.13668759523346882,8.407093978503113,195.10856656460305
2026-09-24 19:44:45.879483136,-1.5010649414062498,0.0909736328125,10.052586425781248,0.011717908796348648,-0.10652644360316953,0.25885925795570197,0.16559745695426353,8.345249155121579,195.25554286075493
2026-09-24 19:44:45.879483136,-1.4962768554687498,0.15082470703124998,10.0884970703125,0.021305288720633905,-0.10226538585904274,0.28016454667633583,0.2012190233378231,8.285496006158558,195.41483393258164
2026-09-24 19:44:45.879483136,-1.503458984375,0.15321875,10.066950683593749,0.02876213977285577,-0.10013485698697935,0.30466562870506486,0.2434349527069022,8.226634967116757,195.58801210666797
2026-09-24 19:44:45.973225472,-1.4507900390625,0.181947265625,10.050192382812499,0.03408846195301425,-0.09693906367888427,0.32916671073379383,0.2912374470768196,8.169954481226625,195.77592556183484
2026-09-24 19:44:45.973225472,-1.4890947265624999,0.229828125,10.00949365234375,0.03302319751698255,-0.09587379924285258,0.3515372638904594,0.341215093451742,8.113784248894795,195.97679017065533
2026-09-24 19:44:46.067215360,-1.43403173828125,0.30404345703124996,10.057374511718749,0.024501082028728992,-0.10226538585904274,0.3643204371228398,0.3893060354559212,8.054926018091113,196.18655594369704
2026-09-24 19:44:46.067215360,-1.4172734374999998,0.28010302734375,10.1363779296875,0.01384843766841204,-0.111852765783328,0.36858149486696656,0.4317465784935437,7.990648354504101,196.3999700173117
2026-09-24 19:44:46.145620992,-1.292783203125,0.20349365234374997,10.117225585937499,0.004261057744126781,-0.12037488127158157,0.3621899082507764,0.46735525715799,7.919960854971597,196.61129321743286
2026-09-24 19:44:46.145620992,-1.2209619140624999,0.22504003906249997,10.09328515625,-0.006391586616190171,-0.12676646788777174,0.34514567727426926,0.4939615445166325,7.8455711010414095,196.81381683113213
2026-09-24 19:44:46.145620992,-1.1252001953125,0.20828173828125,10.07173876953125,-0.01810949541253882,-0.12144014570761326,0.32384038855363534,0.5120642640775431,7.771164897695569,197.0042839967681
2026-09-24 19:44:46.145620992,-1.0868955078125,0.16997705078124997,10.074132812499998,-0.025566346464760685,-0.1129180302193597,0.3025350998330015,0.5228885925385911,7.700562328643821,197.18239538893647
2026-09-24 19:44:46.145620992,-0.9863457031249999,0.17476513671875,10.04779833984375,-0.029827404208887468,-0.09587379924285258,0.28442560442046266,0.5289664080320999,7.638446055592136,197.34972096392772
2026-09-24 19:44:46.145620992,-1.00310400390625,0.17955322265624998,9.985553222656248,-0.03195793308095086,-0.07350324608618697,0.2673813734439555,0.5315350189328115,7.587749309703139,197.50725156908564
2026-09-24 19:44:46.145620992,-1.03662060546875,0.16997705078124997,10.01667578125,-0.03302319751698255,-0.05006742849348968,0.2460760847233216,0.5321745113705626,7.550912019025937,197.6528924148615
2026-09-24 19:44:46.145620992,-1.0438027343749998,0.14124853515625,10.03822216796875,-0.035153726389045944,-0.02769687533682408,0.2258360604387194,0.5301452395730825,7.528147669201499,197.78723298996076
2026-09-24 19:44:46.145620992,-1.0773193359375,0.10294384765624999,10.050192382812499,-0.03302319751698255,-0.006391586616190171,0.2034655072820538,0.5268926796118603,7.51773244674093,197.90873923156937
2026-09-24 19:44:46.145620992,-1.1156240234375,0.1149140625,10.064556640625,-0.029827404208887468,0.009587379924285258,0.17896442525332482,0.5226138850627223,7.5185950384967155,198.0164319245274
2026-09-24 19:44:46.161245184,-1.2161738281249999,0.09576171874999999,10.07173876953125,-0.024501082028728992,0.021305288720633905,0.1565938720966592,0.5190030576781741,7.5274436175796104,198.11064663043956
2026-09-24 19:44:46.161245184,-1.292783203125,0.124490234375,10.100467285156249,-0.02024002428460221,0.02769687533682408,0.136353847812057,0.5166640488104546,7.541566347418578,198.19351490620997
2026-09-24 19:44:46.161245184,-1.3861508789062498,0.14603662109374999,10.160318359375,-0.02024002428460221,0.02876213977285577,0.12037488127158157,0.5135187763120233,7.557693706235585,198.26626424599522
2026-09-24 19:44:46.161245184,-1.4507900390625,0.09336767578124999,10.04779833984375,-0.014913702104443734,0.02769687533682408,0.10652644360316953,0.5119309079857479,7.574658411017374,198.33072610512377
2026-09-24 19:44:46.161245184,-1.4603662109375,0.13406640625,10.074132812499998,-0.010652644360316953,0.021305288720633905,0.09587379924285258,0.5119417691204202,7.589686229656654,198.38835712822458
2026-09-24 19:44:46.161245184,-1.53936962890625,0.16040087890625,10.0597685546875,-0.012783173232380343,0.01384843766841204,0.08735168375459901,0.5116413340691857,7.600783874278505,198.4407671619733
2026-09-24 19:44:46.161245184,-1.52979345703125,0.18673535156249998,10.102861328125,-0.01384843766841204,0.0021305288720633907,0.07776430383031376,0.5100037045657978,7.60661680835309,198.4879278723664
2026-09-24 19:44:46.161245184,-1.5728862304687499,0.12688427734375,10.083708984374999,-0.02024002428460221,-0.011717908796348648,0.06711165946999681,0.5056345737996756,7.603765394870216,198.52918463430734
2026-09-24 19:44:46.161245184,-1.58246240234375,0.15321875,10.0980732421875,-0.02769687533682408,-0.030892668644919165,0.05645901510967985,0.49557020471042756,7.59124490712162,198.56351193476203
2026-09-24 19:44:46.161245184,-1.52500537109375,0.16518896484374998,10.09328515625,-0.03302319751698255,-0.044741106313331204,0.0458063707493629,0.48160667710663146,7.569708627612357,198.59225089018202
2026-09-24 19:44:46.161245184,-1.5273994140624998,0.13167236328124998,10.07173876953125,-0.03621899082507764,-0.05752427954571154,0.04048004856920442,0.46464276648031455,7.540808379288156,198.61662727912173
2026-09-24 19:44:46.161245184,-1.5585219726562498,0.13167236328124998,10.11483154296875,-0.035153726389045944,-0.06391586616190172,0.04154531300523612,0.4477104000667608,7.507064382158321,198.64067561546875
2026-09-24 19:44:46.161245184,-1.5704921875,0.0909736328125,10.129195800781249,-0.03408846195301425,-0.07030745277809189,0.04793689962142629,0.431630641171615,7.469779237849126,198.66746023541026
2026-09-24 19:44:46.161245184,-1.5944326171874998,0.0909736328125,10.0884970703125,-0.029827404208887468,-0.07882956826634545,0.059654808417774936,0.4180818870111556,7.428718186193038,198.70002384624564
2026-09-24 19:44:46.161245184,-1.6471015624999998,0.08618554687499999,10.157924316406248,-0.021305288720633905,-0.08948221262666241,0.07350324608618697,0.40943084562388266,7.382345760203952,198.7402025218687
2026-09-24 19:44:46.161245184,-1.6614658203125,0.09576171874999999,10.102861328125,-0.010652644360316953,-0.10226538585904274,0.0916127414987258,0.4078989854605469,7.32928167911658,198.79079343116157
2026-09-24 19:44:46.161245184,-1.6830122070312499,0.12209619140624998,10.100467285156249,0.0,-0.12250541014364495,0.11398329465539139,0.41415162425768237,7.266402752857246,198.85332894767413
