Timestamp,ax,ay,az,gx,gy,gz,roll,pitch,yaw
2026-09-28 19:00:59.613395712,-0.076609375,-0.1292783203125,10.133983886718749,0.0,0.0,0.0,359.06256502306854,0.5027354702751928,180.39497284936255
2026-09-28 19:00:59.618649344,-0.13167236328124998,-0.124490234375,10.217775390624999,0.0,-0.0010652644360316954,0.0,359.0623828764711,0.5022130314836429,180.39541497014216
2026-09-28 19:00:59.618649344,-0.11012597656249999,-0.1484306640625,10.189046874999999,0.0,0.0,0.0,359.062748728592,0.502477110975633,180.39554909658264
2026-09-28 19:00:59.618649344,-0.07421533203125,-0.15082470703124998,10.172288574218749,0.0,0.0,0.0,359.0625968722091,0.5032318140645312,180.39567130544663
2026-09-28 19:00:59.618649344,-0.07900341796874999,-0.17715917968749997,10.15313623046875,0.0,-0.0010652644360316954,0.0,359.06250863352477,0.503119156471446,180.3954961680709
2026-09-28 19:00:59.618649344,-0.09815576171875,-0.18434130859374998,10.160318359375,0.0,0.0,-0.0010652644360316954,359.06283152835783,0.5025500931611618,180.3950219507899
2026-09-28 19:00:59.618649344,-0.10533789062499999,-0.181947265625,10.189046874999999,-0.0010652644360316954,-0.0021305288720633907,0.0,359.06273546778635,0.5019176628340704,180.39546705063893
2026-09-28 19:00:59.618649344,-0.0813974609375,-0.17715917968749997,10.122013671875,0.0,-0.0010652644360316954,0.0,359.06301861059615,0.5013895460442777,180.39499744517744
2026-09-28 19:00:59.618649344,-0.06942724609374999,-0.16518896484374998,10.160318359375,0.0,0.0,0.0,359.06288603789943,0.5018397298982479,180.3948119714039
2026-09-28 19:00:59.618649344,-0.06463916015625,-0.17476513671875,10.133983886718749,0.0,0.0,0.0,359.06240908172776,0.501308169629743,180.39464112623494
2026-09-28 19:00:59.618649344,-0.0813974609375,-0.14603662109374999,10.234533691406249,0.0,0.0,0.0,359.06219078348533,0.5010064549284474,180.3947700742505
2026-09-28 19:00:59.618649344,-0.067033203125,-0.16997705078124997,10.1363779296875,0.0,0.0,0.0,359.0624370559238,0.5009632875236572,180.39459518382176
2026-09-28 19:00:59.618649344,-0.08618554687499999,-0.15082470703124998,10.2034111328125,0.0,-0.0010652644360316954,0.0,359.0629467470141,0.5004173073038777,180.39442500742408
2026-09-28 19:00:59.629155584,-0.09815576171875,-0.1484306640625,10.14834814453125,0.0,0.0,0.0010652644360316954,359.06246154325066,0.5007589644024307,180.39515962323668
2026-09-28 19:00:59.629155584,-0.0622451171875,-0.13646044921875,10.122013671875,0.0,-0.0010652644360316954,0.0,359.06326840830343,0.5005746913237691,180.3949870365005
2026-09-28 19:00:59.629155584,-0.11252001953124999,-0.15561279296875,10.1268017578125,0.0,0.0,0.0,359.0640727213885,0.5000737045676406,180.39481936605182
2026-09-28 19:00:59.629155584,-0.06942724609374999,-0.13406640625,10.18186474609375,0.0,0.0,0.0,359.0644773075131,0.4999766550549285,180.39526130574995
2026-09-28 19:00:59.629155584,-0.04069873046875,-0.19391748046875,10.129195800781249,0.0,0.0,0.0,359.06481880446466,0.5000578230252937,180.39538752896016
2026-09-28 19:00:59.644789504,-0.06463916015625,-0.181947265625,10.2034111328125,0.0,0.0,0.0,359.0641835323216,0.4996669420901143,180.3955154997087
2026-09-28 19:00:59.660420608,-0.08857958984374999,-0.1292783203125,10.189046874999999,-0.0010652644360316954,0.0,0.0,359.0634883138698,0.49956477225063467,180.39564566295334
2026-09-28 19:00:59.660420608,-0.09576171874999999,-0.15561279296875,10.157924316406248,0.0010652644360316954,0.0,0.0,359.06461266117736,0.4997593801811127,180.39607852314356
2026-09-28 19:00:59.660420608,-0.10773193359375,-0.17955322265624998,10.196229003906248,0.0,0.0,0.0,359.0650275105305,0.499935961977939,180.3962102631268
2026-09-28 19:00:59.660420608,-0.0909736328125,-0.1292783203125,10.162712402343749,0.0,0.0,0.0,359.0650763286157,0.4999108009626374,180.39633885888304
2026-09-28 19:00:59.660420608,-0.1005498046875,-0.13646044921875,10.1268017578125,0.0,0.0,-0.0010652644360316954,359.0655468406644,0.49960968737591777,180.39555581131148
2026-09-28 19:00:59.660420608,-0.067033203125,-0.17476513671875,10.1746826171875,0.0,-0.0010652644360316954,0.0,359.06565046566135,0.49935880901284296,180.39538241607107
2026-09-28 19:00:59.660420608,-0.11012597656249999,-0.12688427734375,10.124407714843748,0.0,0.0,0.0010652644360316954,359.0659218141291,0.4993089485386398,180.39612318706
2026-09-28 19:00:59.660420608,-0.059851074218749994,-0.1292783203125,10.22016943359375,-0.0010652644360316954,0.0,-0.0010652644360316954,359.06551064440475,0.4995536615247236,180.39564554758346
2026-09-28 19:00:59.660420608,-0.1005498046875,-0.1675830078125,10.11483154296875,0.0,0.0,0.0,359.0656621070968,0.4994913093233157,180.39577264884673
2026-09-28 19:00:59.660420608,-0.10533789062499999,-0.162794921875,10.157924316406248,0.0,0.0,0.0,359.06563714703714,0.49970215768198484,180.3962008275676
2026-09-28 19:00:59.660420608,-0.09336767578124999,-0.16997705078124997,10.229745605468748,0.0,-0.0010652644360316954,0.0,359.065745935753,0.49984483912478955,180.39663782491144
2026-09-28 19:00:59.660420608,-0.06463916015625,-0.15082470703124998,10.11004345703125,0.0,0.0,0.0,359.06522680198657,0.4999172088565877,180.3970696842808
2026-09-28 19:00:59.660420608,-0.1005498046875,-0.17476513671875,10.14356005859375,0.0,0.0,0.0,359.06547283704356,0.5002309564636299,180.39719765669943
2026-09-28 19:00:59.660420608,-0.07182128906249999,-0.18434130859374998,10.21059326171875,0.0,0.0,0.0,359.0655775881094,0.5000578949161874,180.3970265152035
2026-09-28 19:00:59.660420608,-0.12688427734375,-0.17955322265624998,10.150742187499999,0.0,0.0,0.0,359.0650597911165,0.5002557109783423,180.39715051815392
2026-09-28 19:00:59.660420608,-0.07900341796874999,-0.1292783203125,10.227351562499999,0.0,0.0,0.0,359.0652578678803,0.5008051778754835,180.39666524456692
2026-09-28 19:00:59.660420608,-0.1005498046875,-0.17237109374999998,10.112437499999999,0.0,0.0,0.0,359.0655972940717,0.5006457408327154,180.3967990768306
2026-09-28 19:00:59.660420608,-0.0813974609375,-0.16997705078124997,10.157924316406248,0.0,0.0,0.0,359.06542406520913,0.5005904504183439,180.3972335804107
2026-09-28 19:00:59.660420608,-0.11252001953124999,-0.1484306640625,10.1746826171875,0.0,0.0,0.0,359.06509628548287,0.5004940108312829,180.3970590851894
2026-09-28 19:00:59.660420608,-0.047880859374999994,-0.16518896484374998,10.179470703124998,0.0,0.0,0.0,359.0650977588684,0.5009950105079551,180.39687976578122
2026-09-28 19:00:59.660420608,-0.076609375,-0.1675830078125,10.16989453125,0.0,-0.0010652644360316954,0.0010652644360316954,359.06523878881853,0.5002525536899616,180.3976244408073
2026-09-28 19:00:59.660420608,-0.09576171874999999,-0.16997705078124997,10.15313623046875,0.0,0.0,0.0,359.06577713148965,0.5002531925946745,180.39836489390478
2026-09-28 19:00:59.660420608,-0.06463916015625,-0.15082470703124998,10.14356005859375,0.0,0.0,0.0,359.0659750562432,0.5006693255444391,180.39848979864448
2026-09-28 19:00:59.660420608,-0.067033203125,-0.16040087890625,10.1938349609375,-0.0010652644360316954,-0.0010652644360316954,0.0,359.0656721474066,0.5005921602521571,180.39862059924275
2026-09-28 19:00:59.660420608,-0.0622451171875,-0.15561279296875,10.201017089843749,0.0,-0.0010652644360316954,0.0,359.0654653852006,0.5004016877616012,180.39844451250838
2026-09-28 19:00:59.660420608,-0.07900341796874999,-0.15800683593749998,10.16989453125,0.0,-0.0010652644360316954,0.0,359.0657596062152,0.49994104412408646,180.3985828395143
2026-09-28 19:00:59.660420608,-0.1005498046875,-0.19391748046875,10.15313623046875,0.0,0.0,0.0,359.0659214289994,0.49941463111592854,180.39932765525586
2026-09-28 19:00:59.660420608,-0.0909736328125,-0.1675830078125,10.18186474609375,0.0,-0.0010652644360316954,0.0,359.0653632618415,0.4987921644525839,180.3991612508123
2026-09-28 19:00:59.660420608,-0.0813974609375,-0.15561279296875,10.14834814453125,0.0,0.0,0.0,359.06501252882794,0.49900922598602343,180.39898154635733
2026-09-28 19:00:59.660420608,-0.10533789062499999,-0.16518896484374998,10.1651064453125,0.0,0.0,0.0,359.0650788437165,0.49883767685156893,180.39942315892006
2026-09-28 19:00:59.660420608,-0.09576171874999999,-0.162794921875,10.1268017578125,0.0,0.0,0.0,359.0644738498587,0.49886309703746445,180.3998566351416
2026-09-28 19:00:59.660420608,-0.08857958984374999,-0.12688427734375,10.2034111328125,0.0,0.0,0.0,359.064794182067,0.49878498122793385,180.39968245055803
2026-09-28 19:00:59.660420608,-0.067033203125,-0.22264599609375,10.179470703124998,0.0,0.0,0.0,359.065010656855,0.49854651605455963,180.39951008319622
2026-09-28 19:00:59.660420608,-0.0909736328125,-0.18673535156249998,10.16989453125,0.0,0.0,0.0010652644360316954,359.0643359460179,0.498561184549926,180.40024292944523
2026-09-28 19:00:59.660420608,-0.11012597656249999,-0.17955322265624998,10.11483154296875,0.0,0.0,-0.0010652644360316954,359.0648307048747,0.49876761689312177,180.40036783008208
2026-09-28 19:00:59.676039680,-0.09576171874999999,-0.17237109374999998,10.229745605468748,0.0,0.0010652644360316954,0.0,359.0646049080904,0.4993332650044565,180.40049170482934
2026-09-28 19:00:59.676039680,-0.10773193359375,-0.162794921875,10.22495751953125,0.0,0.0,-0.0010652644360316954,359.06448750895015,0.4991338157745004,180.40062655064747
2026-09-28 19:00:59.676039680,-0.08857958984374999,-0.15561279296875,10.129195800781249,0.0,0.0,0.0,359.0652456469836,0.49935101859950237,180.40167409367137
2026-09-28 19:00:59.676039680,-0.09815576171875,-0.13406640625,10.112437499999999,0.0,0.0,0.0,359.06588315034975,0.49888048768650706,180.40181014164753
2026-09-28 19:00:59.676039680,-0.076609375,-0.1675830078125,10.18186474609375,0.0,0.0,0.0,359.0658875650475,0.49899213804415876,180.40163080474736
2026-09-28 19:00:59.676039680,-0.11730810546874999,-0.17715917968749997,10.15313623046875,0.0,0.0,0.0010652644360316954,359.06578569891644,0.499129916627442,180.4017558211973
2026-09-28 19:00:59.676039680,-0.11012597656249999,-0.11730810546874999,10.212987304687498,0.0,0.0,0.0,359.0654421962033,0.49877178482931267,180.40158616690297
2026-09-28 19:00:59.676039680,-0.09576171874999999,-0.17237109374999998,10.18186474609375,0.0,0.0,0.0,359.06605793782245,0.49963055045950794,180.40201494102152
2026-09-28 19:00:59.676039680,-0.0813974609375,-0.15800683593749998,10.145954101562499,0.0,-0.0010652644360316954,0.0,359.0662612264752,0.49886499280322183,180.40215481652356
2026-09-28 19:00:59.676039680,-0.07182128906249999,-0.15561279296875,10.124407714843748,0.0,0.0,0.0,359.0662400958743,0.4988952368198066,180.4028956975105
2026-09-28 19:00:59.676039680,-0.10294384765624999,-0.17237109374999998,10.21538134765625,0.0,0.0,0.0,359.06667837936095,0.4993325058765763,180.40332297394315
2026-09-28 19:00:59.676039680,-0.05027490234375,-0.16518896484374998,10.1938349609375,0.0,0.0,0.0,359.06649917519013,0.4996194970430735,180.40375520382895
2026-09-28 19:00:59.676039680,-0.08618554687499999,-0.15082470703124998,10.1746826171875,0.0021305288720633907,0.0010652644360316954,0.0,359.06746963850946,0.5002078323568666,180.4038716011335
2026-09-28 19:00:59.676039680,-0.06463916015625,-0.15561279296875,10.1651064453125,0.0,0.0,0.0,359.0677847607433,0.5007360279923456,180.40429782779287
2026-09-28 19:00:59.676039680,-0.076609375,-0.13885449218749998,10.18186474609375,0.0,0.0,0.0,359.06786246621505,0.5006792642918909,180.4041241274854
2026-09-28 19:00:59.676039680,-0.0909736328125,-0.15082470703124998,10.20819921875,0.0,0.0,0.0,359.06796369345074,0.5009155573825967,180.4039456952942
2026-09-28 19:00:59.676039680,-0.076609375,-0.1484306640625,10.15313623046875,0.0,0.0,-0.0010652644360316954,359.06773135623126,0.5007486564378029,180.40346694446328
2026-09-28 19:00:59.676039680,-0.09815576171875,-0.18912939453125,10.138771972656249,0.0,0.0,0.0,359.0678030203137,0.5010596241559417,180.40298328531895
2026-09-28 19:00:59.676039680,-0.07900341796874999,-0.17237109374999998,10.1938349609375,0.0,0.0,0.0,359.0683083450612,0.5011655078520628,180.40311322707157
2026-09-28 19:00:59.676039680,-0.08379150390625,-0.16518896484374998,10.157924316406248,0.0,0.0,0.0,359.06869350030416,0.5010597424218377,180.40324212335977
2026-09-28 19:00:59.676039680,-0.076609375,-0.1292783203125,10.16989453125,0.0,0.0,0.0,359.069160499549,0.5015428496183352,180.40336179688194
2026-09-28 19:00:59.676039680,-0.076609375,-0.17955322265624998,10.13158984375,0.0,0.0,0.0,359.0693841161837,0.5016350935740513,180.40348966688722
2026-09-28 19:00:59.676039680,-0.067033203125,-0.14603662109374999,10.205805175781249,0.0,-0.0010652644360316954,0.0,359.06931773363306,0.5014686656886347,180.40300970902268
2026-09-28 19:00:59.676039680,-0.07421533203125,-0.181947265625,10.145954101562499,0.0,-0.0010652644360316954,0.0,359.0690619907218,0.5013896364658526,180.4031409391517
2026-09-28 19:00:59.676039680,-0.08618554687499999,-0.21306982421874998,10.1651064453125,0.0,0.0,0.0,359.06930212932787,0.5014485029008672,180.40326626946373
2026-09-28 19:00:59.676039680,-0.08857958984374999,-0.1675830078125,10.167500488281249,0.0,0.0010652644360316954,0.0,359.06903038188426,0.5019684859865414,180.40338478142613
2026-09-28 19:00:59.676039680,-0.08857958984374999,-0.17955322265624998,10.160318359375,-0.0010652644360316954,0.0,0.0,359.06808695371814,0.5021731587888648,180.40320526307846
2026-09-28 19:00:59.676039680,-0.07421533203125,-0.13167236328124998,10.167500488281249,0.0,0.0,0.0,359.06847374660856,0.5018398548751717,180.40303387219166
2026-09-28 19:00:59.676039680,-0.08618554687499999,-0.13885449218749998,10.16989453125,0.0,0.0010652644360316954,0.0,359.068614214352,0.5030215238513417,180.40314613836267
2026-09-28 19:00:59.676039680,-0.047880859374999994,-0.18673535156249998,10.167500488281249,0.0,0.0,0.0,359.06867572203316,0.5031793295336718,180.40327255878586
2026-09-28 19:00:59.676039680,-0.05745703125,-0.17476513671875,10.100467285156249,0.0,0.0,0.0,359.0691472212159,0.5024508144348422,180.4027969427485
2026-09-28 19:00:59.676039680,-0.06942724609374999,-0.17955322265624998,10.1938349609375,0.0,0.0,-0.0010652644360316954,359.069676093198,0.5018602079860605,180.4023217334072
2026-09-28 19:00:59.676039680,-0.067033203125,-0.162794921875,10.18665283203125,0.0,0.0010652644360316954,0.0,359.0698724823693,0.5022045745661948,180.40244168000913
2026-09-28 19:00:59.676039680,-0.11012597656249999,-0.15800683593749998,10.1651064453125,0.0,0.0,0.0,359.070467584769,0.5020697964973686,180.40257236760243
2026-09-28 19:00:59.676039680,-0.0909736328125,-0.17715917968749997,10.179470703124998,-0.0010652644360316954,-0.0010652644360316954,0.0,359.06975834682896,0.5018764207750325,180.4030124829545
2026-09-28 19:00:59.676039680,-0.06942724609374999,-0.1675830078125,10.179470703124998,0.0,0.0,0.0,359.06987428692247,0.50178294827021,180.40314437857361
2026-09-28 19:00:59.676039680,-0.09576171874999999,-0.16997705078124997,10.217775390624999,0.0,0.0,0.0,359.06972235736214,0.5014323039196726,180.40358403262618
2026-09-28 19:00:59.676039680,-0.0909736328125,-0.1292783203125,10.1746826171875,0.0,0.0,0.0,359.07006833335004,0.5012837236372838,180.40372025552344
2026-09-28 19:00:59.676039680,-0.1005498046875,-0.15321875,10.162712402343749,0.0,0.0,0.0,359.07035480975634,0.5011718577551705,180.40415881265233
2026-09-28 19:00:59.676039680,-0.0909736328125,-0.181947265625,10.157924316406248,0.0,0.0,0.0,359.0703574087583,0.5012946882329549,180.40428974371497
2026-09-28 19:00:59.676039680,-0.07421533203125,-0.15321875,10.217775390624999,0.0,0.0,0.0,359.0703516686558,0.5012686927321258,180.4050281593406
2026-09-28 19:00:59.676039680,-0.05745703125,-0.15082470703124998,10.100467285156249,0.0,0.0,0.0,359.0706409994131,0.5006717318610897,180.40516381556137
2026-09-28 19:00:59.676039680,-0.05266894531249999,-0.17237109374999998,10.138771972656249,0.0,0.0,0.0,359.0707422639473,0.5006740832502554,180.40498546870728
2026-09-28 19:00:59.676039680,-0.09576171874999999,-0.17955322265624998,10.13158984375,0.0,0.0,0.0,359.07037942929367,0.5006691653143702,180.40541596424376
2026-09-28 19:00:59.676039680,-0.059851074218749994,-0.17476513671875,10.160318359375,0.0,0.0,0.0,359.06998591386997,0.5009113510105703,180.40615137805779
2026-09-28 19:00:59.676039680,-0.1005498046875,-0.17715917968749997,10.167500488281249,0.0,0.0,0.0,359.0702950135327,0.5007369970087762,180.40597707249177
2026-09-28 19:00:59.692636416,-0.07900341796874999,-0.16518896484374998,10.1746826171875,0.0,0.0,0.0,359.07041048027344,0.5008831534875977,180.40671654150768
2026-09-28 19:00:59.719269888,-0.09336767578124999,-0.18673535156249998,10.172288574218749,0.0,0.0,0.0,359.0698175194095,0.5015433330486418,180.40652985026762
2026-09-28 19:00:59.735437824,-0.05027490234375,-0.18912939453125,10.19144091796875,-0.0010652644360316954,-0.0021305288720633907,0.0,359.0690662563711,0.5008632257926801,180.40636421677067
2026-09-28 19:00:59.735437824,-0.08857958984374999,-0.16040087890625,10.160318359375,0.0,0.0,0.0,359.0685341443535,0.5005601948373284,180.40649307776974
2026-09-28 19:00:59.753702656,-0.07421533203125,-0.17476513671875,10.196229003906248,0.0,-0.0010652644360316954,-0.0010652644360316954,359.0683430618313,0.5005375126853143,180.40662488075037
2026-09-28 19:00:59.753702656,-0.06942724609374999,-0.12688427734375,10.21059326171875,0.0,0.0,0.0021305288720633907,359.06801676694545,0.5004037333540866,180.40736576937016
2026-09-28 19:00:59.753702656,-0.09576171874999999,-0.16997705078124997,10.18665283203125,0.0,0.0,0.0,359.0684296705096,0.5000468970560014,180.4075025841302
2026-09-28 19:00:59.768306688,-0.05745703125,-0.19870556640624998,10.157924316406248,0.0,0.0,0.0,359.0677859105586,0.5007820188324704,180.40762317740092
2026-09-28 19:00:59.768306688,-0.08379150390625,-0.17715917968749997,10.162712402343749,0.0,0.0,0.0,359.0676418036198,0.500233275731998,180.40806288090712
2026-09-28 19:00:59.768306688,-0.1005498046875,-0.18673535156249998,10.172288574218749,0.0,0.0,-0.0010652644360316954,359.067391872574,0.5006270175664355,180.40757629962167
2026-09-28 19:00:59.788841216,-0.10533789062499999,-0.12209619140624998,10.14356005859375,0.0,0.0,0.0,359.0676135737613,0.5004326937119224,180.40710113010144
2026-09-28 19:00:59.788841216,-0.08618554687499999,-0.19391748046875,10.13158984375,0.0,0.0,0.0,359.0682285290038,0.49990225842055397,180.4069393676863
2026-09-28 19:00:59.806730240,-0.14364257812499998,-0.17715917968749997,10.1938349609375,0.0,-0.0010652644360316954,0.0,359.0674936865153,0.5004846363502495,180.40675631400546
2026-09-28 19:00:59.822737664,-0.10294384765624999,-0.13167236328124998,10.19144091796875,0.0,0.0,0.0,359.0674563769257,0.5002998497783784,180.40689180893432
2026-09-28 19:00:59.822737664,-0.06942724609374999,-0.14124853515625,10.095679199218749,0.0,0.0,-0.0010652644360316954,359.0679026354083,0.5003648674080923,180.4061085599631
2026-09-28 19:00:59.830738944,-0.076609375,-0.16997705078124997,10.172288574218749,0.0,-0.0010652644360316954,0.0,359.06831433929096,0.5002612310169109,180.40593519432457
2026-09-28 19:00:59.839137280,-0.076609375,-0.16518896484374998,10.14834814453125,0.0,0.0,0.0,359.06799175247187,0.5005635577661643,180.40636603964822
2026-09-28 19:00:59.851684608,-0.04548681640625,-0.15800683593749998,10.162712402343749,0.0,0.0010652644360316954,-0.0010652644360316954,359.0682464214613,0.5010227045849474,180.4058763166732
2026-09-28 19:00:59.859454464,-0.09336767578124999,-0.14124853515625,10.141166015624998,-0.0010652644360316954,0.0,0.0,359.0675308548067,0.5014803985807239,180.40630141526447
2026-09-28 19:00:59.871461120,-0.05027490234375,-0.15800683593749998,10.189046874999999,0.0,0.0,0.0,359.0677069494987,0.5023807212528795,180.40611375400687
2026-09-28 19:00:59.903417088,-0.043092773437499995,-0.17476513671875,10.1746826171875,0.0,0.0,0.0,359.06787583271733,0.502123608702112,180.4059382364606
2026-09-28 19:00:59.934560256,-0.059851074218749994,-0.14364257812499998,10.1651064453125,0.0,0.0,0.0,359.0672355408356,0.5026023520526572,180.406058885002
2026-09-28 19:00:59.937451776,-0.08618554687499999,-0.1484306640625,10.16989453125,0.0,0.0,0.0,359.0670923270132,0.5023874413971393,180.40679877131896
2026-09-28 19:00:59.939574784,-0.1005498046875,-0.15321875,10.184258789062499,0.0,0.0,0.0,359.0667888848187,0.5022340603362289,180.4066244113718
2026-09-28 19:00:59.939574784,-0.09815576171875,-0.17955322265624998,10.150742187499999,0.0,0.0,0.0,359.066852088697,0.502380908825177,180.40675583417183
2026-09-28 19:00:59.939574784,-0.05266894531249999,-0.18434130859374998,10.107649414062498,-0.0010652644360316954,0.0,0.0,359.0660724261494,0.502570995504702,180.40718537777934
2026-09-28 19:00:59.939574784,-0.08379150390625,-0.15082470703124998,10.2034111328125,0.0,0.0,0.0,359.06596198958295,0.5020440136441822,180.40670998001187
2026-09-28 19:00:59.939574784,-0.01915234375,-0.17476513671875,10.1746826171875,0.0,0.0,0.0,359.06606427959235,0.5016618644383923,180.40715186143174
2026-09-28 19:00:59.966371584,-0.1149140625,-0.17715917968749997,10.107649414062498,0.0,0.0,0.0,359.066345520948,0.5017295049474411,180.40727249542516
2026-09-28 19:00:59.982004736,-0.076609375,-0.181947265625,10.184258789062499,0.0,0.0,0.0,359.06586309816555,0.502097230293824,180.40770701361313
2026-09-28 19:01:00.013278208,-0.10294384765624999,-0.15082470703124998,10.172288574218749,0.0,0.0,0.0,359.0660650162881,0.5024084898283786,180.40752680651923
2026-09-28 19:01:00.057024000,-0.047880859374999994,-0.17476513671875,10.150742187499999,0.0,-0.0010652644360316954,0.0,359.06619981207587,0.5019296407725267,180.40766875241886
2026-09-28 19:01:00.062905600,-0.0622451171875,-0.15800683593749998,10.122013671875,0.0,0.0,-0.0010652644360316954,359.06621982166024,0.5020745485116909,180.4068768141821
2026-09-28 19:01:00.062905600,-0.067033203125,-0.14603662109374999,10.107649414062498,0.0,-0.0010652644360316954,0.0,359.06569115243644,0.5018498328308127,180.40670323062068
2026-09-28 19:01:00.062905600,-0.059851074218749994,-0.16518896484374998,10.217775390624999,0.0,0.0,-0.0010652644360316954,359.06581429086117,0.501645051620939,180.40622494783923
2026-09-28 19:01:00.062905600,-0.10533789062499999,-0.18912939453125,10.18665283203125,0.0,-0.0010652644360316954,0.0,359.06576763452557,0.5007496067267945,180.40606009473672
2026-09-28 19:01:00.062905600,-0.10533789062499999,-0.16040087890625,10.227351562499999,0.0,-0.0010652644360316954,0.0,359.06597124521846,0.5000279095844057,180.4058998222869
2026-09-28 19:01:00.062905600,-0.11970214843749999,-0.15082470703124998,10.179470703124998,0.0,-0.0010652644360316954,0.0,359.0659263042794,0.500107579929614,180.40603025339385
2026-09-28 19:01:00.077678848,-0.076609375,-0.19152343749999998,10.133983886718749,0.0,0.0,0.0,359.06555618864036,0.5003763590556517,180.40616051027175
2026-09-28 19:01:00.092186624,-0.1005498046875,-0.162794921875,10.196229003906248,0.0010652644360316954,0.0010652644360316954,0.0,359.06577261379726,0.5004331489276785,180.40628286917388
2026-09-28 19:01:00.107819776,-0.06463916015625,-0.16518896484374998,10.1363779296875,0.0,0.0,0.0,359.0662685100324,0.5007593679014112,180.40610263898017
2026-09-28 19:01:00.107819776,-0.08857958984374999,-0.17237109374999998,10.19144091796875,0.0,0.0,0.0,359.06596869111286,0.5002504348445306,180.40623845990427
2026-09-28 19:01:00.156968704,-0.0622451171875,-0.17955322265624998,10.1268017578125,0.0,0.0,0.0,359.06601541414733,0.4998203475003481,180.40667984842278
2026-09-28 19:01:00.156968704,-0.059851074218749994,-0.15800683593749998,10.20819921875,0.0,0.0,0.0010652644360316954,359.06634564429515,0.4996939757336835,180.40681091296227
2026-09-28 19:01:00.156968704,-0.047880859374999994,-0.16518896484374998,10.14834814453125,0.0,0.0,0.0,359.06699137018586,0.5001779714700101,180.40723732498822
2026-09-28 19:01:00.186609920,-0.09576171874999999,-0.16040087890625,10.167500488281249,0.0010652644360316954,-0.0010652644360316954,0.0,359.0675486107959,0.499392811082084,180.40768263127714
2026-09-28 19:01:00.186609920,-0.11252001953124999,-0.15321875,10.14834814453125,0.004261057744126781,0.0,0.0,359.07001629917096,0.4989797819627323,180.4075135164872
2026-09-28 19:01:00.186609920,-0.07900341796874999,-0.17476513671875,10.18186474609375,0.004261057744126781,0.0,0.0,359.07289632488806,0.4989088192891145,180.40764544142718
2026-09-28 19:01:00.186609920,-0.10773193359375,-0.19870556640624998,10.2800205078125,0.009587379924285258,0.0,0.0,359.07787289744243,0.4989940118248255,180.40777439545687
2026-09-28 19:01:00.186609920,-0.335166015625,0.01675830078125,10.107649414062498,0.01384843766841204,-0.0010652644360316954,0.01597896654047543,359.0858839220727,0.4986290035860987,180.4134051895937
2026-09-28 19:01:00.186609920,-0.16518896484374998,-0.00718212890625,10.112437499999999,0.0021305288720633907,0.0021305288720633907,0.16085492984078598,359.09402633833656,0.5031859698877112,180.48220048405705
2026-09-28 19:01:00.186609920,0.13406640625,-0.021546386718749998,10.39732861328125,-0.02024002428460221,-0.0031957933080950856,0.28016454667633583,359.08429632268485,0.50519030381437,180.62515439289473
2026-09-28 19:01:00.186609920,0.09336767578124999,0.24419238281249997,10.133983886718749,0.02024002428460221,-0.0031957933080950856,0.47084688072600933,359.10346736584586,0.5022383719681917,180.86429844245205
2026-09-28 19:01:00.218372864,0.36868261718749995,0.1484306640625,10.083708984374999,-0.022370553156665602,0.004261057744126781,0.7733819805590108,359.10335063831155,0.5082196837370575,181.2632762594561
2026-09-28 19:01:00.243092224,-0.23940429687499998,0.24898046875,10.627156738281249,-0.025566346464760685,-0.0010652644360316954,0.9534116702483673,359.08807269659275,0.5141121262145775,181.79130074454613
2026-09-28 19:01:00.268058880,-0.45726220703125,-0.15082470703124998,10.351841796874998,-0.03195793308095086,0.02024002428460221,0.9960222476896351,359.1065144889121,0.5267831929253413,182.36698608653037
2026-09-28 19:01:00.268058880,-0.35910644531249997,-0.9887397460937499,10.00470556640625,0.004261057744126781,0.004261057744126781,0.681769239060285,359.10326940131716,0.5449449943646884,182.8079370830887
2026-09-28 19:01:00.312582656,0.24658642578124998,-1.177869140625,10.035828124999998,0.022370553156665602,-0.004261057744126781,0.2641855801358604,359.09354798543393,0.550984384882478,183.01973179254597
2026-09-28 19:01:00.312582656,-0.0813974609375,-0.14124853515625,10.2321396484375,0.005326322180158476,0.0,0.0021305288720633907,359.0915742345211,0.5488980103530033,183.0399455189465
2026-09-28 19:01:00.312582656,-0.10294384765624999,-0.17237109374999998,10.196229003906248,-0.006391586616190171,0.0,0.0,359.0918260707902,0.5485755541893057,183.03977847045348
2026-09-28 19:01:00.317659648,-0.028728515625,-0.12688427734375,10.095679199218749,0.0031957933080950856,0.0,0.0,359.09256641410565,0.5482353878800633,183.04021765217885
2026-09-28 19:01:00.317950208,-0.076609375,-0.1675830078125,10.167500488281249,-0.0010652644360316954,0.0010652644360316954,0.0,359.0911914474061,0.548676440063411,183.04003026673576
2026-09-28 19:01:00.317950208,-0.067033203125,-0.162794921875,10.14356005859375,0.0,-0.0010652644360316954,-0.0010652644360316954,359.0921641060284,0.5481029239503721,183.03955629458173
2026-09-28 19:01:00.317950208,-0.1005498046875,-0.1675830078125,10.145954101562499,0.0010652644360316954,0.0,0.0,359.09178601017703,0.5478128368661545,183.03968644126724
2026-09-28 19:01:00.317950208,-0.0813974609375,-0.15321875,10.141166015624998,0.0,0.0,0.0,359.09158293173454,0.5477022391094324,183.03920326931242
2026-09-28 19:01:00.334734592,-0.11252001953124999,-0.18912939453125,10.129195800781249,0.0,0.0,0.0,359.09246051484433,0.5475624294614058,183.039028682846
2026-09-28 19:01:00.359244032,-0.076609375,-0.11252001953124999,10.107649414062498,0.0,0.0,0.0,359.09222777643055,0.547875594154304,183.03945767932913
2026-09-28 19:01:00.417786624,-0.11252001953124999,-0.15321875,10.21538134765625,-0.0010652644360316954,0.0,0.0,359.09214528655775,0.5477493516202113,183.0395906753779
2026-09-28 19:01:00.417786624,-0.11730810546874999,-0.18673535156249998,10.160318359375,0.0,0.0,-0.0010652644360316954,359.09304986149385,0.5473945905368924,183.03911606640065
2026-09-28 19:01:00.417786624,-0.07421533203125,-0.15321875,10.112437499999999,-0.0010652644360316954,0.0,0.0,359.0922489847025,0.5480253802979138,183.03923550308824
2026-09-28 19:01:00.417786624,-0.08379150390625,-0.1963115234375,10.16989453125,0.0,0.0,0.0,359.0921305627766,0.5482082557469703,183.0396656081459
2026-09-28 19:01:00.417786624,-0.06463916015625,-0.1675830078125,10.124407714843748,0.0010652644360316954,0.0,0.0010652644360316954,359.0924925763337,0.5481245080126064,183.04009913702654
2026-09-28 19:01:00.417786624,-0.0909736328125,-0.15082470703124998,10.162712402343749,0.0,0.0,0.0,359.09198611594115,0.5479582537792458,183.04022804757642
2026-09-28 19:01:00.435373312,-0.076609375,-0.13167236328124998,10.11483154296875,0.0,0.0,0.0,359.092356686357,0.5482946983644419,183.04035459479192
2026-09-28 19:01:00.451250432,-0.08857958984374999,-0.14603662109374999,10.1363779296875,0.0,-0.0010652644360316954,0.0,359.0920889661266,0.5480481305758523,183.04048575992454
2026-09-28 19:01:00.467925504,-0.08857958984374999,-0.16518896484374998,10.117225585937499,0.0,0.0,0.0,359.0921268140778,0.5482461875360759,183.04030694752885
2026-09-28 19:01:00.467925504,-0.0335166015625,-0.15800683593749998,10.1938349609375,0.0,0.0,0.0,359.0922442181739,0.5481459901965191,183.040435953649
2026-09-28 19:01:00.496444928,-0.06942724609374999,-0.14124853515625,10.14356005859375,0.0,0.0,0.0,359.0924556953288,0.548204968881228,183.04055625100733
2026-09-28 19:01:00.496444928,-0.0909736328125,-0.15561279296875,10.179470703124998,0.0,0.0,-0.0010652644360316954,359.09263011834025,0.5483878782099415,183.04007369033357
2026-09-28 19:01:00.533339392,-0.0383046875,-0.1675830078125,10.160318359375,0.0,0.0,0.0,359.09260889000655,0.5486330895175433,183.039894349273
2026-09-28 19:01:00.533339392,-0.06942724609374999,-0.15082470703124998,10.17707666015625,0.0,0.0,0.0,359.0925384195069,0.5481021236022282,183.0397242452915
2026-09-28 19:01:00.533339392,-0.04069873046875,-0.1484306640625,10.160318359375,0.0010652644360316954,0.0,0.0,359.0927102637907,0.548272586501852,183.03954380552105
2026-09-28 19:01:00.533339392,-0.0622451171875,-0.15082470703124998,10.172288574218749,-0.0010652644360316954,0.0,0.0,359.0923757957483,0.5481590663459501,183.0396695681953
2026-09-28 19:01:00.533339392,-0.10773193359375,-0.16518896484374998,10.17707666015625,0.0010652644360316954,0.0,0.0,359.09310497956886,0.5481570503615905,183.03949152791193
2026-09-28 19:01:00.546299904,-0.07421533203125,-0.13885449218749998,10.172288574218749,0.0,0.0010652644360316954,0.0,359.09304003419885,0.5487031730999593,183.0396121037666
2026-09-28 19:01:00.546299904,-0.0813974609375,-0.162794921875,10.179470703124998,0.0,0.0,0.0,359.0935946219068,0.5487398650173266,183.03943531434174
2026-09-28 19:01:00.546299904,-0.0813974609375,-0.14364257812499998,10.18665283203125,0.0,0.0,0.0,359.09362797228283,0.5490419222065569,183.03956165978965
2026-09-28 19:01:00.546299904,-0.08857958984374999,-0.15082470703124998,10.1363779296875,0.0,0.0,0.0,359.0930756176138,0.5498622847148463,183.03967381118463
2026-09-28 19:01:00.560331776,-0.08618554687499999,-0.18673535156249998,10.1363779296875,0.0,0.0,-0.0010652644360316954,359.09300394578423,0.5497861238417181,183.0398040093539
2026-09-28 19:01:00.573311488,-0.05027490234375,-0.16040087890625,10.11961962890625,0.0,0.0,0.0,359.0927398434206,0.5499386932763282,183.0402327198646
2026-09-28 19:01:00.694750720,-0.10294384765624999,-0.15800683593749998,10.13158984375,0.0,0.0,0.0,359.0930123678448,0.5497178667799454,183.04035847047493
2026-09-28 19:01:00.694750720,-0.08618554687499999,-0.15321875,10.157924316406248,0.0,0.0,0.0,359.09330248572894,0.5493212391835699,183.04049410119651
2026-09-28 19:01:00.739744256,-0.08857958984374999,-0.14364257812499998,10.17707666015625,0.0,0.0,0.0,359.09314375997917,0.5493089506090604,183.0406187023309
2026-09-28 19:01:00.742582016,-0.10533789062499999,-0.16997705078124997,10.117225585937499,0.0,0.0,0.0,359.093057815338,0.5491217094767923,183.04044371520567
2026-09-28 19:01:00.742582016,-0.05745703125,-0.1675830078125,10.141166015624998,0.0,0.0,0.0,359.09286852302586,0.5494829425416876,183.0405679370785
2026-09-28 19:01:00.742582016,-0.11970214843749999,-0.16040087890625,10.162712402343749,0.0,-0.0010652644360316954,0.0010652644360316954,359.0928988270714,0.5494350397818889,183.04100415269443
2026-09-28 19:01:00.742582016,-0.07421533203125,-0.13885449218749998,10.122013671875,0.0,0.0,0.0,359.0927085289549,0.5494521347321051,183.04052292178565
2026-09-28 19:01:00.742582016,-0.10773193359375,-0.1484306640625,10.1651064453125,0.0,0.0,0.0010652644360316954,359.0930924741876,0.5493738054281824,183.04065447603728
2026-09-28 19:01:00.742582016,-0.10294384765624999,-0.1675830078125,10.18665283203125,0.0,0.0,0.0,359.0927020920657,0.5496155838999381,183.04108479877343
2026-09-28 19:01:00.751060480,-0.0813974609375,-0.17955322265624998,10.1363779296875,0.0,0.0,0.0010652644360316954,359.09209940985,0.5495325152127079,183.0412158166482
2026-09-28 19:01:00.751060480,-0.08379150390625,-0.16040087890625,10.18186474609375,0.0,-0.0010652644360316954,0.0,359.0920230547467,0.5487702810751055,183.04166063693546
2026-09-28 19:01:00.751060480,-0.10294384765624999,-0.13646044921875,10.189046874999999,0.0,0.0,0.0,359.09205396062856,0.5482206523421068,183.04149637635626
2026-09-28 19:01:00.751060480,-0.09815576171875,-0.1292783203125,10.160318359375,0.0,0.0,0.0,359.09221863275644,0.5483008975263575,183.04162397990407
2026-09-28 19:01:00.751060480,-0.09576171874999999,-0.15321875,10.138771972656249,0.0,0.0,0.0,359.0919928726702,0.5485304169195808,183.0417508776565
2026-09-28 19:01:00.751060480,-0.0813974609375,-0.162794921875,10.172288574218749,0.0,0.0,0.0,359.0924048751038,0.5484276161018277,183.0418798654607
2026-09-28 19:01:00.751060480,-0.059851074218749994,-0.162794921875,10.172288574218749,0.0,0.0,0.0,359.0921665530659,0.5489017877874054,183.04169368716708
2026-09-28 19:01:00.766729216,-0.07182128906249999,-0.16040087890625,10.157924316406248,0.0,0.0,0.0,359.0924634453039,0.5484516629636137,183.04182442905866
2026-09-28 19:01:00.782357248,-0.07182128906249999,-0.162794921875,10.155530273437499,0.0,0.0,0.0,359.09292070215395,0.5487552195935876,183.04190583147638
2026-09-28 19:01:00.782357248,-0.11012597656249999,-0.19870556640624998,10.16989453125,0.0,0.0,0.0,359.0928321120742,0.5485565169637979,183.04203583851182
2026-09-28 19:01:00.829631744,-0.1149140625,-0.15321875,10.117225585937499,0.0,-0.0010652644360316954,-0.0010652644360316954,359.09261437291303,0.5485492513578248,183.04155435338137
2026-09-28 19:01:00.876751872,-0.0813974609375,-0.14364257812499998,10.141166015624998,0.0,0.0,0.0,359.09268872314374,0.5484559828305933,183.04138075499054
2026-09-28 19:01:00.876751872,-0.0909736328125,-0.17955322265624998,10.1938349609375,0.0,-0.0010652644360316954,0.0,359.0928378538701,0.5481787002217838,183.04151309994546
2026-09-28 19:01:00.926216192,-0.09336767578124999,-0.15082470703124998,10.13158984375,0.0,0.0,0.0,359.09255937443146,0.5481226741439421,183.04133909157926
2026-09-28 19:01:00.927240448,-0.08379150390625,-0.16518896484374998,10.0980732421875,0.0,0.0,0.0,359.0933511912349,0.547770800526277,183.04147655790985
2026-09-28 19:01:00.927240448,-0.0909736328125,-0.14124853515625,10.1938349609375,0.0,-0.0021305288720633907,0.0,359.0932789624507,0.5474594935008118,183.04161157415592
2026-09-28 19:01:00.928736512,-0.09336767578124999,-0.14603662109374999,10.150742187499999,0.0,0.0,0.0,359.0933067559654,0.5473900947131564,183.04143757460562
2026-09-28 19:01:00.930768896,-0.0383046875,-0.17715917968749997,10.18665283203125,0.0,0.0,0.0,359.0932606525662,0.5473121906498888,183.0412627729163
2026-09-28 19:01:00.931783936,-0.07182128906249999,-0.11012597656249999,10.157924316406248,0.0,-0.0010652644360316954,0.0,359.0931555954289,0.5464755177758884,183.04109232650208
2026-09-28 19:01:00.933837056,-0.07900341796874999,-0.17715917968749997,10.160318359375,-0.0010652644360316954,-0.0010652644360316954,0.0,359.09274123118706,0.5457747785953809,183.0409247547906
2026-09-28 19:01:00.933837056,-0.08618554687499999,-0.16040087890625,10.2321396484375,0.0,-0.0010652644360316954,0.0,359.091990488202,0.5453099123014635,183.04136141107367
2026-09-28 19:01:00.934853120,-0.09336767578124999,-0.14364257812499998,10.14356005859375,0.0,0.0,0.0,359.091735691814,0.545479346266871,183.04179303410626
2026-09-28 19:01:00.935738624,-0.07182128906249999,-0.17955322265624998,10.11961962890625,0.0,0.0,-0.0010652644360316954,359.09162547766516,0.5452141670317887,183.04131256100757
2026-09-28 19:01:00.935738624,-0.043092773437499995,-0.16040087890625,10.19144091796875,0.0,0.0,0.0,359.0912443506619,0.5447131133623653,183.0417498033463
2026-09-28 19:01:00.937401600,-0.076609375,-0.13885449218749998,10.112437499999999,0.0,0.0,0.0,359.09159705566015,0.5440317932082838,183.04188590356927
2026-09-28 19:01:00.937401600,-0.05027490234375,-0.14603662109374999,10.162712402343749,0.0,0.0,0.0,359.09174448824183,0.5438597160221089,183.04171303578184
2026-09-28 19:01:00.968128768,-0.07421533203125,-0.18673535156249998,10.157924316406248,0.0010652644360316954,0.0,0.0,359.09232674077094,0.5436956710754958,183.04153364227483
2026-09-28 19:01:00.991238656,-0.05745703125,-0.1675830078125,10.18186474609375,0.0,-0.0010652644360316954,0.0,359.0920671448943,0.5434866632723387,183.04196723676108
2026-09-28 19:01:01.043792384,-0.05027490234375,-0.162794921875,10.102861328125,0.0,0.0,0.0,359.0916292958504,0.5428636117866095,183.04240677586682
2026-09-28 19:01:01.084545792,-0.05745703125,-0.17237109374999998,10.21059326171875,0.0,0.0,0.0,359.09160271467994,0.5424952206066753,183.04253743432432
2026-09-28 19:01:01.091551232,-0.1149140625,-0.17955322265624998,10.150742187499999,0.0,-0.0010652644360316954,0.0,359.0914778658235,0.5420362716853251,183.0429771162451
2026-09-28 19:01:01.091551232,-0.076609375,-0.18673535156249998,10.179470703124998,0.0,0.0,0.0,359.09119655887156,0.5423198286524483,183.0424979980093
2026-09-28 19:01:01.091551232,-0.06942724609374999,-0.13885449218749998,10.160318359375,0.0,0.0,0.0,359.0913794267552,0.5417410206168128,183.04293755123842
2026-09-28 19:01:01.091551232,-0.08379150390625,-0.18673535156249998,10.19144091796875,0.0,0.0,0.0,359.09188375090184,0.5409634475187514,183.04307710470422
2026-09-28 19:01:01.091551232,-0.05745703125,-0.13167236328124998,10.157924316406248,0.0,0.0,0.0,359.09160555629757,0.5403332556650824,183.04260000844204
2026-09-28 19:01:01.091551232,-0.07182128906249999,-0.13646044921875,10.1651064453125,0.0,0.0,0.0,359.0914178274712,0.5403947891506578,183.042727120594
2026-09-28 19:01:01.091551232,-0.047880859374999994,-0.15082470703124998,10.155530273437499,0.0,0.0,0.0,359.09118282457075,0.540472841464536,183.04254865177114
2026-09-28 19:01:01.091551232,-0.055062988281249996,-0.15082470703124998,10.198623046875,0.0,0.0,0.0,359.09143600746677,0.5402345171804108,183.04237378264094
2026-09-28 19:01:01.091551232,-0.09336767578124999,-0.14603662109374999,10.18186474609375,0.0,0.0010652644360316954,-0.0010652644360316954,359.0915153440337,0.5401836712940145,183.04158523274415
2026-09-28 19:01:01.107678976,-0.09336767578124999,-0.17237109374999998,10.189046874999999,-0.0010652644360316954,0.0,0.0010652644360316954,359.09128573440637,0.5399867083869085,183.04232710499005
2026-09-28 19:01:01.109940736,-0.07900341796874999,-0.14603662109374999,10.112437499999999,0.0,0.0,0.0,359.0910903778341,0.5402844759489497,183.04245126925107
2026-09-28 19:01:01.109940736,-0.11252001953124999,-0.15561279296875,10.172288574218749,0.0,0.0,0.0,359.09128738439836,0.5400616277201185,183.04227591989903
2026-09-28 19:01:01.115946496,-0.10773193359375,-0.14603662109374999,10.14834814453125,0.0,-0.0021305288720633907,0.0,359.0910145017329,0.5395749556346038,183.04241674964774
2026-09-28 19:01:01.115946496,-0.076609375,-0.13885449218749998,10.21059326171875,-0.0010652644360316954,0.0,0.0,359.09048381474327,0.5399085623178007,183.04223837171105
2026-09-28 19:01:01.155431168,-0.11012597656249999,-0.17237109374999998,10.18665283203125,0.0,0.0,0.0,359.09047849438883,0.5395353720046405,183.0420688394365
2026-09-28 19:01:01.233555712,-0.07900341796874999,-0.16040087890625,10.179470703124998,0.0,0.0,0.0,359.09122998079823,0.5392218018892365,183.0422029994579
2026-09-28 19:01:01.233555712,-0.06942724609374999,-0.12209619140624998,10.162712402343749,0.0,0.0,-0.0010652644360316954,359.09184024248776,0.5389003214027908,183.0417236465043
2026-09-28 19:01:01.280428544,-0.09336767578124999,-0.17237109374999998,10.222563476562499,-0.0010652644360316954,-0.0010652644360316954,0.0,359.09164828047574,0.538303949298608,183.04125020473694
2026-09-28 19:01:01.280428544,-0.059851074218749994,-0.13885449218749998,10.17707666015625,0.0010652644360316954,0.0,0.0,359.0919107756918,0.5388257832086045,183.0413709441964
2026-09-28 19:01:01.280428544,-0.0813974609375,-0.13406640625,10.117225585937499,0.0,0.0,0.0,359.0926324924507,0.538374770590916,183.04120250171428
2026-09-28 19:01:01.280428544,-0.06463916015625,-0.16518896484374998,10.19144091796875,0.0,-0.0010652644360316954,0.0,359.09240469256713,0.5375177109931843,183.04103861974488
2026-09-28 19:01:01.280428544,-0.08857958984374999,-0.16518896484374998,10.18186474609375,0.0,0.0,0.0,359.09237784137196,0.5373445961126393,183.04116913856217
2026-09-28 19:01:01.280428544,-0.06463916015625,-0.17476513671875,10.167500488281249,0.0010652644360316954,0.0,0.0010652644360316954,359.09273060462993,0.5374185237719913,183.04190297139863
2026-09-28 19:01:01.280428544,-0.124490234375,-0.162794921875,10.141166015624998,0.0,0.0,0.0,359.09301669489827,0.5370608586459744,183.04234370449737
2026-09-28 19:01:01.280428544,-0.076609375,-0.12688427734375,10.141166015624998,0.0,0.0,0.0,359.0929104901002,0.5367411652017037,183.04247842787325
2026-09-28 19:01:01.280428544,-0.09815576171875,-0.16997705078124997,10.1746826171875,-0.0010652644360316954,-0.0021305288720633907,0.0,359.0924134255409,0.5359354728827136,183.04200973235987
2026-09-28 19:01:01.280428544,-0.067033203125,-0.13885449218749998,10.138771972656249,0.0,-0.0010652644360316954,-0.0010652644360316954,359.09196465100246,0.5356837125501741,183.04153384534737
2026-09-28 19:01:01.280428544,-0.076609375,-0.16040087890625,10.155530273437499,0.0,0.0,-0.0021305288720633907,359.0921686817014,0.5351875357467616,183.04106117669738
2026-09-28 19:01:01.296058112,-0.05266894531249999,-0.181947265625,10.117225585937499,0.0,-0.0010652644360316954,0.0,359.09211123520964,0.5350606072499734,183.0411915218499
2026-09-28 19:01:01.296058112,-0.06463916015625,-0.15321875,10.16989453125,0.0,0.0,0.0,359.09218998011795,0.5349325005277438,183.04132024344736
2026-09-28 19:01:01.296058112,-0.10533789062499999,-0.17955322265624998,10.20819921875,0.0,0.0,0.0,359.09227839125106,0.5349246588233435,183.04175234364484
2026-09-28 19:01:01.296058112,-0.067033203125,-0.15800683593749998,10.1938349609375,0.0,-0.0010652644360316954,-0.0010652644360316954,359.09219043953203,0.5347659080266283,183.0418871784403
2026-09-28 19:01:01.327687168,-0.067033203125,-0.16040087890625,10.19144091796875,0.0,0.0,0.0,359.091947851336,0.5349301066697772,183.042318917847
2026-09-28 19:01:01.358937600,-0.08618554687499999,-0.16997705078124997,10.19144091796875,0.0,0.0,0.0,359.09250204516184,0.5346761962430131,183.04305950767892
2026-09-28 19:01:01.358937600,-0.0909736328125,-0.15561279296875,10.160318359375,0.0,0.0,0.0,359.0921365075227,0.5343854667262047,183.04318975578
2026-09-28 19:01:01.358937600,-0.076609375,-0.15321875,10.155530273437499,0.0,0.0,0.0,359.0929578184775,0.5346291865311729,183.0433149348627
2026-09-28 19:01:01.430857984,-0.0909736328125,-0.162794921875,10.167500488281249,0.0,0.0,0.0,359.09311444670874,0.5345813329151373,183.0428341790458
2026-09-28 19:01:01.468681216,-0.07421533203125,-0.14603662109374999,10.11961962890625,0.0,0.0,0.0,359.0925519053542,0.5344096388214935,183.04265749001001
2026-09-28 19:01:01.468681216,-0.09815576171875,-0.16518896484374998,10.167500488281249,0.0,-0.0010652644360316954,-0.0010652644360316954,359.09222291784187,0.5341421739493735,183.04217778225382
2026-09-28 19:01:01.484306432,-0.05745703125,-0.16040087890625,10.16989453125,0.0010652644360316954,0.0,0.0,359.0924116179415,0.5342588046203482,183.0419974947356
2026-09-28 19:01:01.484306432,-0.07900341796874999,-0.17715917968749997,10.172288574218749,0.0,0.0,0.0,359.09164641653746,0.534705890547188,183.04242245975408
2026-09-28 19:01:01.484306432,-0.05745703125,-0.15082470703124998,10.138771972656249,0.0,-0.0021305288720633907,0.0,359.09125097332185,0.5337348076768972,183.04226172564594
2026-09-28 19:01:01.484306432,-0.07421533203125,-0.13885449218749998,10.157924316406248,0.0,0.0,0.0,359.0913998954446,0.533237062523673,183.04239396274744
2026-09-28 19:01:01.484306432,-0.1149140625,-0.162794921875,10.100467285156249,0.0,-0.0010652644360316954,0.0,359.09116506906696,0.5327327516928531,183.04222027087317
2026-09-28 19:01:01.484306432,-0.05745703125,-0.15561279296875,10.16989453125,0.0010652644360316954,0.0021305288720633907,0.0,359.0913318099327,0.5336937461164579,183.04203019589332
2026-09-28 19:01:01.484306432,-0.10294384765624999,-0.16518896484374998,10.141166015624998,-0.0021305288720633907,-0.0010652644360316954,-0.0010652644360316954,359.0904058496841,0.5335012559187498,183.0415458622706
2026-09-28 19:01:01.484306432,-0.05027490234375,-0.13646044921875,10.078920898437499,0.0,-0.0010652644360316954,0.0,359.0903195296026,0.5330683037234341,183.04229097729225
2026-09-28 19:01:01.484306432,-0.11252001953124999,-0.16518896484374998,10.16989453125,0.0,0.0,-0.0010652644360316954,359.0893251661146,0.5338885761526341,183.0414892368183
2026-09-28 19:01:01.484306432,-0.12209619140624998,-0.16518896484374998,10.18186474609375,0.0,0.0,0.0,359.08952118480494,0.5339381093175452,183.04131409508548
2026-09-28 19:01:01.484306432,-0.04548681640625,-0.1292783203125,10.1746826171875,-0.0010652644360316954,-0.0021305288720633907,0.0,359.08951214894057,0.5337908221378118,183.04114459887404
2026-09-28 19:01:01.484306432,-0.05745703125,-0.14124853515625,10.138771972656249,0.0,0.0,0.0,359.0892163967193,0.5330332091674388,183.04097529414733
2026-09-28 19:01:01.484306432,-0.05266894531249999,-0.15082470703124998,10.196229003906248,0.0,0.0,0.0,359.0894929449241,0.532891946445632,183.04110382031232
2026-09-28 19:01:01.515582976,-0.09815576171875,-0.12209619140624998,10.15313623046875,0.0,0.0,0.0,359.0898924970893,0.5331924645604506,183.0415310478522
2026-09-28 19:01:01.515582976,-0.06463916015625,-0.1484306640625,10.112437499999999,0.0,-0.0010652644360316954,0.0,359.0905012745204,0.5326123077197192,183.04136639647317
2026-09-28 19:01:01.546813184,-0.05266894531249999,-0.15800683593749998,10.138771972656249,0.0,0.0,0.0,359.09098100110396,0.5320582748411291,183.04119562360464
2026-09-28 19:01:01.578211584,-0.1292783203125,-0.17955322265624998,10.1651064453125,0.0,0.0,0.0,359.0913249986485,0.5317451611686858,183.0410216159338
2026-09-28 19:01:01.578211584,-0.0813974609375,-0.13406640625,10.172288574218749,0.0,0.0,-0.0010652644360316954,359.0908698611605,0.5319704358996739,183.04054081941078
2026-09-28 19:01:01.578211584,-0.07421533203125,-0.1963115234375,10.212987304687498,0.0,0.0,0.0,359.0906769886407,0.5318522410142893,183.04036750332946
2026-09-28 19:01:01.578211584,-0.08618554687499999,-0.15082470703124998,10.13158984375,0.0,0.0,0.0,359.0909302965156,0.5319751474264254,183.04049012397493
2026-09-28 19:01:01.578211584,-0.05266894531249999,-0.16040087890625,10.184258789062499,0.0,0.0,0.0,359.09096044294927,0.532109889140241,183.04092159833527
2026-09-28 19:01:01.593793792,-0.09576171874999999,-0.15561279296875,10.212987304687498,0.0,0.0,0.0,359.0901942612116,0.5327362060685648,183.04073138072695
2026-09-28 19:01:01.593793792,-0.08618554687499999,-0.1675830078125,10.14834814453125,0.0,-0.0010652644360316954,0.0,359.089840484603,0.5324788185802598,183.0402564041534
2026-09-28 19:01:01.609416192,-0.11252001953124999,-0.1675830078125,10.1651064453125,0.0,0.0,0.0,359.0894770433885,0.53270419780517,183.04068702442513
2026-09-28 19:01:01.609416192,-0.09576171874999999,-0.17476513671875,10.184258789062499,0.0,-0.0010652644360316954,0.0,359.0891250897747,0.532585346508573,183.04051727873326
2026-09-28 19:01:01.624974080,-0.11730810546874999,-0.1484306640625,10.150742187499999,0.0,0.0,0.0,359.08929474324066,0.5325973717546478,183.0409520395861
2026-09-28 19:01:01.640836096,-0.11252001953124999,-0.16518896484374998,10.167500488281249,0.0,0.0,0.0,359.0894756052578,0.5325108916808471,183.04108451682353
2026-09-28 19:01:01.640836096,-0.08857958984374999,-0.15800683593749998,10.124407714843748,0.0,0.0,-0.0010652644360316954,359.08960312207756,0.5324332512290906,183.0399932837336
2026-09-28 19:01:01.659645440,-0.05266894531249999,-0.1675830078125,10.196229003906248,0.0,0.0,0.0,359.09021311027516,0.5326570931613819,183.039508996308
2026-09-28 19:01:01.663578368,-0.05266894531249999,-0.14124853515625,10.172288574218749,0.0,0.0,0.0,359.0904503049939,0.5326279983141092,183.03993957407525
2026-09-28 19:01:01.674484480,-0.05266894531249999,-0.15800683593749998,10.1746826171875,0.0,-0.0010652644360316954,-0.0010652644360316954,359.0903720608576,0.532100972686437,183.0397694283113
2026-09-28 19:01:01.688531456,-0.0909736328125,-0.17955322265624998,10.20819921875,0.0,0.0,0.0,359.0904966012781,0.5322625278410308,183.0395865775894
2026-09-28 19:01:01.688531456,-0.0909736328125,-0.15561279296875,10.17707666015625,0.0,0.0,-0.0010652644360316954,359.09034522671936,0.532050752585051,183.03941097367272
2026-09-28 19:01:01.735424000,-0.067033203125,-0.19391748046875,10.167500488281249,0.0,0.0,0.0,359.0902406013907,0.5323134333270785,183.0389257769831
2026-09-28 19:01:01.782298624,-0.10533789062499999,-0.17476513671875,10.179470703124998,0.0,-0.0021305288720633907,0.0,359.0896399143362,0.5317095252437516,183.0390588357266
2026-09-28 19:01:01.782298624,-0.07182128906249999,-0.15561279296875,10.145954101562499,0.0,0.0,0.0,359.0887588368635,0.5319968856645054,183.03918229652402
2026-09-28 19:01:01.782298624,-0.07900341796874999,-0.14603662109374999,10.14356005859375,-0.0021305288720633907,-0.0010652644360316954,0.0,359.0881254864573,0.531517820332947,183.03931776601172
2026-09-28 19:01:01.861338112,-0.10773193359375,-0.11970214843749999,10.133983886718749,0.0,0.0,0.0,359.0884651868651,0.5311902145902722,183.03975412269847
2026-09-28 19:01:01.861338112,-0.09336767578124999,-0.14124853515625,10.167500488281249,0.0,0.0,0.0,359.08869214377904,0.5319531215165171,183.03957213840158
2026-09-28 19:01:01.861338112,-0.11012597656249999,-0.16518896484374998,10.167500488281249,0.0010652644360316954,0.0,0.0,359.0890146671985,0.5321035732128284,183.03939313372567
2026-09-28 19:01:01.923786752,-0.1005498046875,-0.16997705078124997,10.198623046875,0.0,0.0,-0.0010652644360316954,359.0892110031672,0.5323020360289835,183.03921789044543
2026-09-28 19:01:01.923786752,-0.09815576171875,-0.15800683593749998,10.184258789062499,0.0,-0.0010652644360316954,0.0,359.08926325532013,0.5323462280862694,183.03934920345702
2026-09-28 19:01:01.923786752,-0.09576171874999999,-0.162794921875,10.17707666015625,0.0,0.0,0.0,359.089084305099,0.5326656726822894,183.03917124473665
2026-09-28 19:01:01.939415040,-0.12688427734375,-0.13646044921875,10.1651064453125,0.0,0.0,0.0,359.088990894732,0.5324185222960444,183.03930120117607
2026-09-28 19:01:01.939415040,-0.10773193359375,-0.19391748046875,10.179470703124998,0.0,0.0,0.0,359.0893016650955,0.5332090758132848,183.03881222042438
2026-09-28 19:01:01.939415040,-0.055062988281249996,-0.1675830078125,10.18186474609375,0.0,0.0,0.0,359.0892702331377,0.5338313662531199,183.03862507211988
2026-09-28 19:01:01.939415040,-0.08618554687499999,-0.181947265625,10.20819921875,0.0,0.0,0.0,359.0892578284836,0.5341177396872329,183.03905132633898
2026-09-28 19:01:01.939415040,-0.08618554687499999,-0.17476513671875,10.11483154296875,0.0,0.0,0.0,359.08918629334704,0.5342082965510827,183.03887147047658
2026-09-28 19:01:01.939415040,-0.10294384765624999,-0.162794921875,10.157924316406248,0.0,0.0,0.0,359.0892551201918,0.533639234912858,183.03869974834296
2026-09-28 19:01:01.939415040,-0.10773193359375,-0.18673535156249998,10.17707666015625,0.0,-0.0010652644360316954,0.0,359.08904555221375,0.5330374586595367,183.0382281064979
2026-09-28 19:01:01.939415040,-0.08857958984374999,-0.181947265625,10.184258789062499,0.0,0.0,0.0,359.0895671419728,0.5332911992408411,183.0380481129506
2026-09-28 19:01:01.939415040,-0.076609375,-0.17237109374999998,10.2034111328125,0.0,0.0010652644360316954,0.0,359.0893135136337,0.5336727027621726,183.03847490090985
2026-09-28 19:01:01.955039488,-0.09576171874999999,-0.12688427734375,10.20819921875,0.0,-0.0010652644360316954,0.0,359.08912889312984,0.533150132258682,183.03891696859873
2026-09-28 19:01:01.955039488,-0.09576171874999999,-0.14124853515625,10.10525537109375,0.0,0.0,0.0,359.08928686431534,0.5330740840498355,183.03904926596402
2026-09-28 19:01:01.955039488,-0.08618554687499999,-0.124490234375,10.21059326171875,0.0,-0.0010652644360316954,0.0,359.0892633415485,0.5329569281411832,183.03887477181206
2026-09-28 19:01:01.972364288,-0.0622451171875,-0.1675830078125,10.15313623046875,0.0,0.0,0.0,359.08918928673285,0.5320000952639378,183.03915802030403
2026-09-28 19:01:02.010878976,-0.09576171874999999,-0.13646044921875,10.1938349609375,0.0010652644360316954,0.0,0.0,359.08980750159265,0.531968887777161,183.03928399557532
2026-09-28 19:01:02.010878976,-0.047880859374999994,-0.16997705078124997,10.205805175781249,0.0,0.0,0.0,359.08995169656464,0.531735620096283,183.03941617826365
2026-09-28 19:01:02.010878976,-0.05027490234375,-0.162794921875,10.167500488281249,0.0,0.0,0.0,359.0893404464372,0.5318344428021505,183.03954209530266
2026-09-28 19:01:02.010878976,-0.10294384765624999,-0.16040087890625,10.1651064453125,0.0,0.0,0.0,359.0895180617577,0.5312287626159777,183.03937145806353
2026-09-28 19:01:02.018881792,-0.04548681640625,-0.15321875,10.145954101562499,0.0,0.0,0.0,359.0893813494722,0.5315157071384949,183.0394990760606
2026-09-28 19:01:02.022673920,-0.09336767578124999,-0.1484306640625,10.14834814453125,0.0,0.0,0.0,359.089634997602,0.5314561671963698,183.03931959195336
2026-09-28 19:01:02.022673920,-0.08618554687499999,-0.11970214843749999,10.138771972656249,0.0,-0.0021305288720633907,0.0,359.0895383636532,0.5310261480579304,183.0394543804339
2026-09-28 19:01:02.023910656,-0.07900341796874999,-0.15082470703124998,10.150742187499999,0.0,0.0,0.0010652644360316954,359.09001432908286,0.5314441201475282,183.04018743477272
2026-09-28 19:01:02.027380224,-0.09336767578124999,-0.17476513671875,10.1651064453125,0.0,0.0,0.0,359.09004798532345,0.5310088390353687,183.04062861055104
2026-09-28 19:01:02.035388928,-0.067033203125,-0.18912939453125,10.18665283203125,0.0,0.0,0.0,359.0900421328902,0.5312638993624696,183.04105973361894
2026-09-28 19:01:02.051086080,-0.08618554687499999,-0.15561279296875,10.172288574218749,0.0010652644360316954,0.0,0.0,359.09044207845875,0.5311031341686759,183.0414937641798
2026-09-28 19:01:02.059097856,-0.06463916015625,-0.16518896484374998,10.1651064453125,-0.0010652644360316954,-0.0010652644360316954,0.0010652644360316954,359.0897382493247,0.531042512360372,183.0422339887325
2026-09-28 19:01:02.069041920,-0.07900341796874999,-0.16997705078124997,10.157924316406248,0.0,0.0010652644360316954,0.0,359.0897871715447,0.5312572599190417,183.04266566831438
2026-09-28 19:01:02.070987776,-0.0622451171875,-0.18434130859374998,10.1363779296875,0.0,0.0,0.0,359.0897519864217,0.5315206347253901,183.04278644299754
2026-09-28 19:01:02.092050944,-0.11252001953124999,-0.14364257812499998,10.145954101562499,0.0,0.0,0.0,359.08924424111984,0.5312372162013872,183.04352564739727
2026-09-28 19:01:02.098266368,-0.08857958984374999,-0.16040087890625,10.1746826171875,0.0,0.0,0.0,359.0897017232891,0.5316183237675333,183.04365302009302
2026-09-28 19:01:02.114246656,-0.09576171874999999,-0.16040087890625,10.1268017578125,0.0,0.0,-0.0010652644360316954,359.09051212631493,0.5316964751044978,183.0431754553755
2026-09-28 19:01:02.118185216,-0.08618554687499999,-0.1675830078125,10.124407714843748,0.0,0.0,0.0,359.0909915456965,0.531402202190594,183.04330991560442
2026-09-28 19:01:02.134297600,-0.09815576171875,-0.162794921875,10.145954101562499,0.0,-0.0010652644360316954,0.0,359.08992296504147,0.53111279035647,183.04374656764958
2026-09-28 19:01:02.137484288,-0.11252001953124999,-0.162794921875,10.217775390624999,0.0,0.0,0.0,359.089955255061,0.5307323027439868,183.04357736797905
2026-09-28 19:01:02.152427776,-0.06463916015625,-0.17955322265624998,10.18665283203125,-0.0010652644360316954,0.0,0.0,359.0898488269567,0.5305530364294587,183.0437148499707
2026-09-28 19:01:02.152427776,-0.1005498046875,-0.15561279296875,10.184258789062499,0.0,0.0,0.0,359.0895364079419,0.5296639345996838,183.0438524925784
2026-09-28 19:01:02.169745408,-0.059851074218749994,-0.15321875,10.13158984375,0.0,0.0,0.0,359.08951487234145,0.5293729616847458,183.04398802138317
2026-09-28 19:01:02.177756160,-0.06463916015625,-0.124490234375,10.1363779296875,0.0,0.0,0.0,359.0896060854969,0.5292265833275929,183.0438118076813
2026-09-28 19:01:02.185816320,-0.08857958984374999,-0.14603662109374999,10.184258789062499,0.0,-0.0010652644360316954,0.0,359.0893073703948,0.5291609596756888,183.043942750723
2026-09-28 19:01:02.193825280,-0.09336767578124999,-0.15321875,10.112437499999999,0.0,0.0,0.0,359.08957109821614,0.5290797267728196,183.04407319920915
2026-09-28 19:01:02.201609216,-0.067033203125,-0.16997705078124997,10.1651064453125,0.0,-0.0010652644360316954,0.0,359.08911017244344,0.5288838009759801,183.04420540963952
2026-09-28 19:01:02.218503936,-0.07900341796874999,-0.17476513671875,10.1938349609375,0.0,0.0,-0.0010652644360316954,359.0888373220669,0.5290529274274912,183.0434135778834
2026-09-28 19:01:02.218503936,-0.021546386718749998,-0.1484306640625,10.14356005859375,0.0,0.0,0.0,359.0880888049835,0.5289824475425657,183.04323317581944
2026-09-28 19:01:02.236090368,-0.09576171874999999,-0.14124853515625,10.1651064453125,0.0,0.0,0.0,359.0880894482457,0.5286322817524707,183.04274886667778
2026-09-28 19:01:02.251512064,-0.08618554687499999,-0.15082470703124998,10.11961962890625,0.0,0.0,0.0,359.08823131672597,0.5285877164818282,183.04257602803165
2026-09-28 19:01:02.251512064,-0.055062988281249996,-0.12688427734375,10.129195800781249,0.0,0.0,0.0,359.08809878556525,0.528507347562971,183.04331872336493
2026-09-28 19:01:02.284976384,-0.09815576171875,-0.15082470703124998,10.18186474609375,0.0,-0.0010652644360316954,0.0,359.08861108508006,0.5280194128634957,183.04345644029127
2026-09-28 19:01:02.289489152,-0.1005498046875,-0.16997705078124997,10.11961962890625,0.0,0.0,0.0,359.08858547406413,0.5276812621170209,183.04389713384202
2026-09-28 19:01:02.313379072,-0.08618554687499999,-0.15082470703124998,10.08610302734375,0.0,0.0,0.0,359.088804512938,0.5273212216987593,183.04433715320556
2026-09-28 19:01:02.329038592,-0.0622451171875,-0.14124853515625,10.172288574218749,-0.0010652644360316954,0.0,0.0,359.088374598875,0.5268635509100362,183.04416653550894
2026-09-28 19:01:02.329038592,-0.08857958984374999,-0.15800683593749998,10.179470703124998,0.0010652644360316954,0.0,0.0,359.0887803028087,0.5272014715599908,183.04428866141862
2026-09-28 19:01:02.329038592,-0.0909736328125,-0.15082470703124998,10.15313623046875,0.0,0.0,0.0,359.0885952052173,0.5277076708621846,183.04410580166882
2026-09-28 19:01:02.329038592,-0.0909736328125,-0.14364257812499998,10.160318359375,0.0,-0.0010652644360316954,0.0,359.08815094570457,0.5274540684818672,183.04393298553174
2026-09-28 19:01:02.329038592,-0.09336767578124999,-0.16040087890625,10.162712402343749,0.0,-0.0010652644360316954,-0.0010652644360316954,359.0881959052987,0.5272351942771585,183.04345894513904
2026-09-28 19:01:02.344859392,-0.0622451171875,-0.17237109374999998,10.160318359375,-0.0010652644360316954,-0.0010652644360316954,0.0,359.0873815322514,0.5270353096984852,183.0432855804599
2026-09-28 19:01:02.344859392,-0.1005498046875,-0.15800683593749998,10.162712402343749,0.0,0.0,0.0,359.0868209614875,0.527213822778182,183.04340919537267
2026-09-28 19:01:02.360493824,-0.0909736328125,-0.162794921875,10.160318359375,0.0,0.0,0.0,359.08676672547807,0.5270594834483641,183.04353946077015
2026-09-28 19:01:02.376609024,-0.08379150390625,-0.181947265625,10.184258789062499,0.0,0.0,0.0,359.08704308372984,0.5272437347776958,183.0439703416554
2026-09-28 19:01:02.400329216,-0.028728515625,-0.16040087890625,10.160318359375,0.0,0.0,0.0010652644360316954,359.0870394665006,0.5266984306748759,183.0447162914594
2026-09-28 19:01:02.400329216,-0.055062988281249996,-0.16518896484374998,10.179470703124998,0.0,0.0,0.0,359.0872964433261,0.5268934030295218,183.04514219922712
2026-09-28 19:01:02.416511744,-0.10773193359375,-0.15321875,10.184258789062499,0.0,-0.0010652644360316954,0.0,359.0869633585231,0.5260042264797715,183.0449774255526
2026-09-28 19:01:02.417867008,-0.05266894531249999,-0.1675830078125,10.15313623046875,0.0,0.0,0.0,359.08677740721697,0.5264410884629857,183.0447992635655
2026-09-28 19:01:02.424871168,-0.047880859374999994,-0.13646044921875,10.17707666015625,0.0,0.0,0.0,359.0866423219067,0.5264818714605035,183.04461877418993
2026-09-28 19:01:02.434778880,-0.076609375,-0.14364257812499998,10.157924316406248,0.0,0.0,0.0,359.0871339507889,0.526407790510336,183.04474642603455
2026-09-28 19:01:02.454912256,-0.0909736328125,-0.17476513671875,10.20819921875,0.0,0.0,0.0,359.08729246107043,0.5263202983599365,183.04487869943804
2026-09-28 19:01:02.457524992,-0.08857958984374999,-0.1675830078125,10.145954101562499,0.0,-0.0010652644360316954,0.0,359.08704168751046,0.5258081119118719,183.04501208396266
2026-09-28 19:01:02.464536320,-0.07900341796874999,-0.162794921875,10.155530273437499,-0.0010652644360316954,0.0,0.0,359.08634792287916,0.5258835349833888,183.04513731897967
2026-09-28 19:01:02.480331520,-0.076609375,-0.14124853515625,10.179470703124998,0.0,0.0,-0.0010652644360316954,359.0862069620058,0.5255915026817823,183.0446566361001
2026-09-28 19:01:02.489582336,-0.11252001953124999,-0.16518896484374998,10.124407714843748,0.0,0.0,0.0,359.08647476100646,0.5255716432362257,183.0447851199841
2026-09-28 19:01:02.496820736,-0.08857958984374999,-0.14603662109374999,10.1268017578125,0.0,0.0,0.0,359.08679848718305,0.5248816842866753,183.04431289843032
2026-09-28 19:01:02.513694464,-0.12209619140624998,-0.15082470703124998,10.129195800781249,0.0,0.0,0.0,359.0876129896656,0.5252790029159204,183.04383055513708
2026-09-28 19:01:02.521438208,-0.09576171874999999,-0.124490234375,10.18665283203125,0.0,-0.0010652644360316954,-0.0010652644360316954,359.0880814358293,0.5251311654024294,183.04396294663056
2026-09-28 19:01:02.529661440,-0.1005498046875,-0.16040087890625,10.1268017578125,0.0,0.0,0.0,359.0878000453077,0.5250003737016957,183.0437888232661
2026-09-28 19:01:02.537732096,-0.08618554687499999,-0.14124853515625,10.18665283203125,0.0,0.0,0.0,359.0876382943296,0.525578814488775,183.04391618225225
2026-09-28 19:01:02.561718272,-0.067033203125,-0.17476513671875,10.1938349609375,0.0,0.0,0.0,359.0874940796095,0.5255176347631549,183.04404852471808
2026-09-28 19:01:02.561718272,-0.07182128906249999,-0.15321875,10.14834814453125,0.0,0.0,0.0,359.0872862098878,0.5253233852531689,183.04417747167108
2026-09-28 19:01:02.561718272,-0.0813974609375,-0.16040087890625,10.18186474609375,0.0,0.0010652644360316954,-0.0010652644360316954,359.08735253921105,0.525485478807367,183.04307863524457
2026-09-28 19:01:02.577556224,-0.09576171874999999,-0.15561279296875,10.15313623046875,0.0,-0.0010652644360316954,0.0,359.08733599605006,0.5250105159608688,183.0429090110332
2026-09-28 19:01:02.577556224,-0.08379150390625,-0.1484306640625,10.21538134765625,0.0,-0.0010652644360316954,0.0,359.087671714126,0.5244134751796359,183.04243962998078
2026-09-28 19:01:02.602820352,-0.08379150390625,-0.17955322265624998,10.13158984375,0.0,-0.0010652644360316954,-0.0010652644360316954,359.0878010435914,0.5241191900898102,183.04196142342315
2026-09-28 19:01:02.602820352,-0.0813974609375,-0.17715917968749997,10.222563476562499,0.0,0.0,-0.0010652644360316954,359.0878684806917,0.5241025190405784,183.04178504943678
2026-09-28 19:01:02.635327488,-0.1005498046875,-0.10773193359375,10.150742187499999,0.0,0.0,0.0,359.08794787922915,0.5240653747073085,183.04161144795705
2026-09-28 19:01:02.651915008,-0.067033203125,-0.14124853515625,10.150742187499999,-0.0010652644360316954,0.0,0.0,359.0879590483993,0.5242533261655228,183.04205042500533
2026-09-28 19:01:02.651915008,-0.047880859374999994,-0.17955322265624998,10.17707666015625,0.0,0.0,0.0,359.0883680577483,0.5240444107750386,183.04248741330647
2026-09-28 19:01:02.685944576,-0.09576171874999999,-0.162794921875,10.179470703124998,0.0,0.0,0.0,359.08790642064525,0.5240586651074238,183.04291714919435
2026-09-28 19:01:02.696961792,-0.1149140625,-0.17476513671875,10.19144091796875,0.0,0.0,0.0,359.08806469554355,0.5232666930446757,183.0427511947905
2026-09-28 19:01:02.696961792,-0.08857958984374999,-0.162794921875,10.13158984375,0.0010652644360316954,0.0,0.0,359.0885266827041,0.523742042510488,183.0428758907914
2026-09-28 19:01:02.701791744,-0.10773193359375,-0.16518896484374998,10.22016943359375,0.0,0.0,0.0,359.08880442916535,0.5239831570795223,183.0433068625254
2026-09-28 19:01:02.701791744,-0.12688427734375,-0.15082470703124998,10.129195800781249,0.0,0.0,0.0010652644360316954,359.0887882422493,0.5236005620721449,183.0440526488526
2026-09-28 19:01:02.701791744,-0.07421533203125,-0.16518896484374998,10.14356005859375,0.0,0.0,0.0,359.0889067700368,0.5235042322690455,183.0438842723551
2026-09-28 19:01:02.712806656,-0.055062988281249996,-0.1292783203125,10.124407714843748,0.0010652644360316954,0.0010652644360316954,0.0,359.0896447361504,0.5241587365084129,183.04431177208872
2026-09-28 19:01:02.718082048,-0.07900341796874999,-0.16040087890625,10.205805175781249,0.0,0.0,0.0,359.09037442184854,0.5242064264526609,183.0441336191852
2026-09-28 19:01:02.729500672,-0.11252001953124999,-0.14364257812499998,10.21538134765625,0.0,0.0,0.0,359.09040269677655,0.5243639503963338,183.04395464163971
2026-09-28 19:01:02.734528512,-0.055062988281249996,-0.13646044921875,10.133983886718749,0.0,-0.0010652644360316954,0.0,359.090713005,0.523803172586255,183.0440979961442
2026-09-28 19:01:02.740204288,-0.08379150390625,-0.15561279296875,10.141166015624998,0.0,-0.0010652644360316954,0.0,359.0908724465242,0.5228296957855427,183.04393483442766
2026-09-28 19:01:02.751232256,-0.076609375,-0.13646044921875,10.1268017578125,0.0,0.0,0.0,359.0905444402508,0.5225255900120092,183.04406550274007
2026-09-28 19:01:02.768019200,-0.10294384765624999,-0.13885449218749998,10.11483154296875,0.0,0.0010652644360316954,0.0,359.0906289991314,0.5233883903317701,183.04417774224262
2026-09-28 19:01:02.768019200,-0.10294384765624999,-0.16040087890625,10.150742187499999,0.0,0.0010652644360316954,0.0,359.09051263631727,0.5239318475145968,183.0443006782816
2026-09-28 19:01:02.881355520,-0.1005498046875,-0.17237109374999998,10.16989453125,0.0,0.0,0.0,359.0904417556224,0.5243380974072634,183.04442605854217
2026-09-28 19:01:02.881355520,-0.05266894531249999,-0.14603662109374999,10.234533691406249,0.0,-0.0021305288720633907,0.0,359.09030458540735,0.523788980038519,183.04456534132046
2026-09-28 19:01:02.881355520,-0.12209619140624998,-0.13646044921875,10.19144091796875,0.0,0.0,0.0,359.090289423815,0.5233670080040085,183.0443909193661
2026-09-28 19:01:02.881355520,-0.08618554687499999,-0.16997705078124997,10.157924316406248,0.0,0.0,0.0,359.0902658863308,0.5240694073890312,183.04451194664904
2026-09-28 19:01:02.881355520,-0.09576171874999999,-0.17476513671875,10.1651064453125,0.0,0.0010652644360316954,0.0010652644360316954,359.0903020074999,0.5246281236498829,183.04493853024587
2026-09-28 19:01:02.881355520,-0.059851074218749994,-0.15561279296875,10.17707666015625,0.0,0.0,0.0,359.09025791469014,0.5249541921250321,183.04505931438428
2026-09-28 19:01:02.881355520,-0.076609375,-0.15321875,10.1363779296875,0.0,0.0,0.0,359.0900649349585,0.5250558000785592,183.04518643443336
2026-09-28 19:01:02.881355520,-0.028728515625,-0.15800683593749998,10.13158984375,0.0,-0.0010652644360316954,0.0,359.0898664347478,0.5243987506010688,183.0450179599269
2026-09-28 19:01:02.884179968,-0.09576171874999999,-0.14124853515625,10.155530273437499,0.0,-0.0010652644360316954,0.0,359.0894271132487,0.5234994841863875,183.04515728227068
2026-09-28 19:01:02.884539136,-0.06942724609374999,-0.13646044921875,10.160318359375,0.0,0.0,0.0010652644360316954,359.0900572830903,0.5234780061406267,183.04559333711472
2026-09-28 19:01:02.884539136,-0.059851074218749994,-0.15561279296875,10.17707666015625,0.0,0.0,0.0,359.0905846478895,0.5236262159381303,183.04602655103258
2026-09-28 19:01:02.884539136,-0.047880859374999994,-0.11970214843749999,10.145954101562499,0.0,0.0,-0.0010652644360316954,359.0906424441266,0.5237311728027522,183.04554276977072
2026-09-28 19:01:02.901413376,-0.0813974609375,-0.15561279296875,10.11483154296875,0.0,0.0,0.0,359.0908991103041,0.5246110902728115,183.04535348787059
2026-09-28 19:01:02.917720832,-0.05266894531249999,-0.13406640625,10.184258789062499,0.0,-0.0010652644360316954,0.0,359.09066073583114,0.5242581016488289,183.04579485861655
2026-09-28 19:01:02.917978624,-0.10294384765624999,-0.162794921875,10.100467285156249,0.0010652644360316954,0.0010652644360316954,0.0,359.09114771056403,0.5241736732559131,183.0459225561812
2026-09-28 19:01:02.935063808,-0.0813974609375,-0.14603662109374999,10.14356005859375,0.0,-0.0021305288720633907,0.0,359.0908752284089,0.5238387749524557,183.0457533736322
2026-09-28 19:01:02.951830784,-0.076609375,-0.14124853515625,10.167500488281249,0.0,-0.0010652644360316954,0.0,359.0911902850215,0.5230653807810137,183.0455887917489
2026-09-28 19:01:02.951830784,-0.08857958984374999,-0.14603662109374999,10.150742187499999,0.0,0.0,0.0,359.0909592709232,0.5235993933186909,183.04601579565733
2026-09-28 19:01:02.968077312,-0.08857958984374999,-0.17237109374999998,10.167500488281249,0.0,0.0,-0.0010652644360316954,359.0913152647892,0.5241779885221427,183.04583239723425
2026-09-28 19:01:02.995555584,-0.076609375,-0.19152343749999998,10.1746826171875,0.0,0.0,0.0,359.0912886393358,0.5243828798838274,183.04565302738072
2026-09-28 19:01:02.995555584,-0.0909736328125,-0.18673535156249998,10.172288574218749,0.0,0.0,0.0,359.0906366350011,0.5245418376871012,183.04608101288727
2026-09-28 19:01:03.017877504,-0.07421533203125,-0.17955322265624998,10.201017089843749,0.0,0.0,-0.0010652644360316954,359.09054785211146,0.5254472841707272,183.04589151641844
2026-09-28 19:01:03.043388672,-0.08379150390625,-0.13167236328124998,10.21059326171875,0.0010652644360316954,0.0,0.0,359.09071601095127,0.5256521083767186,183.0460162044345
2026-09-28 19:01:03.043388672,-0.0813974609375,-0.14603662109374999,10.145954101562499,0.0,0.0,0.0,359.0911611960963,0.5251543025582855,183.04615325540155
2026-09-28 19:01:03.051451904,-0.07182128906249999,-0.15082470703124998,10.162712402343749,0.0,0.0,0.0,359.0922352405584,0.524800714302131,183.0459803847342
2026-09-28 19:01:03.051451904,-0.0909736328125,-0.16518896484374998,10.1938349609375,0.0,0.0,0.0010652644360316954,359.09174205879174,0.5242284692518873,183.04641946757323
2026-09-28 19:01:03.059457280,-0.10533789062499999,-0.1484306640625,10.179470703124998,-0.0010652644360316954,0.0,0.0,359.09054365245447,0.5241960739925455,183.0465477327146
2026-09-28 19:01:03.063567104,-0.08618554687499999,-0.14124853515625,10.11483154296875,0.0,0.0,0.0,359.09083415152,0.5238856801747702,183.04576788230423
2026-09-28 19:01:03.069881088,-0.1005498046875,-0.19870556640624998,10.15313623046875,0.0,0.0,0.0,359.0909650638298,0.5235953165156382,183.04589990568775
2026-09-28 19:01:03.080183296,-0.06942724609374999,-0.10294384765624999,10.14834814453125,0.0,-0.0010652644360316954,0.0,359.09005278204114,0.5232765761000178,183.046032838747
2026-09-28 19:01:03.085671680,-0.09336767578124999,-0.15561279296875,10.150742187499999,0.0,0.0,0.0,359.08966060166927,0.5235276284731203,183.04616091407004
2026-09-28 19:01:03.100192512,-0.08379150390625,-0.16518896484374998,10.11961962890625,0.0010652644360316954,0.0,0.0,359.08987911326983,0.5236063090962059,183.04628605735434
2026-09-28 19:01:03.101246720,-0.067033203125,-0.124490234375,10.172288574218749,0.0,0.0,0.0,359.09013769038603,0.5232469807853829,183.04641650935912
2026-09-28 19:01:03.118553088,-0.09336767578124999,-0.17476513671875,10.141166015624998,0.0,-0.0010652644360316954,0.0,359.0908683837809,0.5224802081396887,183.04594310738221
2026-09-28 19:01:03.134594816,-0.08857958984374999,-0.17476513671875,10.129195800781249,0.0,0.0,0.0,359.090487792475,0.5229782646673315,183.04636878184292
2026-09-28 19:01:03.135670528,-0.08857958984374999,-0.14124853515625,10.14834814453125,0.0,-0.0010652644360316954,0.0,359.0897564951855,0.5227171404280196,183.04649853421517
2026-09-28 19:01:03.149156608,-0.047880859374999994,-0.17715917968749997,10.167500488281249,0.0,0.0,0.0,359.0890174132649,0.5226131675510899,183.04662819852248
2026-09-28 19:01:03.154524160,-0.043092773437499995,-0.1484306640625,10.205805175781249,0.0,0.0,0.0,359.0891708174838,0.5229462346058982,183.04613770665267
2026-09-28 19:01:03.169222144,-0.08618554687499999,-0.12688427734375,10.16989453125,0.0,-0.0010652644360316954,0.0,359.08934501687264,0.5224179661916594,183.04658011915026
2026-09-28 19:01:03.178826240,-0.0813974609375,-0.15561279296875,10.21059326171875,0.0,-0.0010652644360316954,0.0,359.08927617718246,0.5219195419872161,183.04641279102788
2026-09-28 19:01:03.212505600,-0.0909736328125,-0.14603662109374999,10.179470703124998,0.0,0.0,0.0,359.089485582818,0.5216482052139663,183.04623752680843
2026-09-28 19:01:03.214248192,-0.10294384765624999,-0.13646044921875,10.107649414062498,0.0,-0.0010652644360316954,-0.0010652644360316954,359.08956862772015,0.5213872206365648,183.0457637620349
2026-09-28 19:01:03.214248192,-0.09336767578124999,-0.14124853515625,10.167500488281249,-0.0010652644360316954,-0.0010652644360316954,0.0010652644360316954,359.0892887107668,0.5208093733812883,183.04681987066715
2026-09-28 19:01:03.218750720,-0.0909736328125,-0.15800683593749998,10.160318359375,0.0,0.0,0.0,359.0893028871861,0.5203386298052749,183.04726092192607
2026-09-28 19:01:03.234500096,-0.09336767578124999,-0.15800683593749998,10.16989453125,0.0,-0.0010652644360316954,0.0,359.08887021726093,0.5203312359709352,183.04739064064984
2026-09-28 19:01:03.235244032,-0.08379150390625,-0.16040087890625,10.172288574218749,0.0,-0.0010652644360316954,0.0,359.0887081610447,0.5196056636882327,183.0475297154541
2026-09-28 19:01:03.252163328,-0.1005498046875,-0.12209619140624998,10.16989453125,-0.0010652644360316954,-0.0010652644360316954,0.0,359.08789760193525,0.5192193143600208,183.0473585261221
2026-09-28 19:01:03.252163328,-0.11730810546874999,-0.17237109374999998,10.14834814453125,-0.0010652644360316954,-0.0021305288720633907,0.0,359.0874690246427,0.5182981621239922,183.0475055748333
2026-09-28 19:01:03.269427968,-0.059851074218749994,-0.1484306640625,10.227351562499999,0.0,-0.0021305288720633907,-0.0010652644360316954,359.08685112234764,0.5170642193326537,183.04704560888774
2026-09-28 19:01:03.269427968,-0.04548681640625,-0.17237109374999998,10.18186474609375,0.0,-0.0010652644360316954,0.0,359.08631387504704,0.5160642399493748,183.04718684992844
2026-09-28 19:01:03.285209856,-0.09336767578124999,-0.162794921875,10.18665283203125,-0.0021305288720633907,-0.0021305288720633907,0.0,359.0846611027538,0.5147956124149645,183.0476363346789
2026-09-28 19:01:03.302274048,-0.05266894531249999,-0.10533789062499999,10.1746826171875,0.0,-0.0031957933080950856,0.0,359.08407882449023,0.5131884865135367,183.04748667047693
2026-09-28 19:01:03.302274048,-0.08618554687499999,-0.1484306640625,10.150742187499999,0.0,-0.0010652644360316954,0.0,359.0841561679855,0.5119242952946196,183.04793799548034
2026-09-28 19:01:03.320588800,-0.055062988281249996,-0.162794921875,10.11483154296875,0.0,-0.0031957933080950856,0.0,359.083592895278,0.5107635598764448,183.04808876973468
2026-09-28 19:01:03.328664320,-0.1149140625,-0.17237109374999998,10.11961962890625,0.0,-0.0010652644360316954,-0.0010652644360316954,359.0837085292513,0.5096528625087772,183.04762226914153
2026-09-28 19:01:03.337358592,-0.07421533203125,-0.17715917968749997,10.141166015624998,-0.0010652644360316954,-0.0010652644360316954,0.0,359.0829937926986,0.5093358352901737,183.0477570115827
2026-09-28 19:01:03.361240576,-0.059851074218749994,-0.181947265625,10.14356005859375,0.0,0.0,0.0,359.08343385560033,0.5092771831780062,183.04849931711595
2026-09-28 19:01:03.361240576,-0.06942724609374999,-0.13167236328124998,10.100467285156249,0.0,0.0,0.0,359.0837868888689,0.5087922853910488,183.04893788073053
2026-09-28 19:01:03.386472704,-0.067033203125,-0.15082470703124998,10.155530273437499,0.0,-0.0010652644360316954,0.0,359.0837463762107,0.5083388156141585,183.04937837312846
2026-09-28 19:01:03.417600000,-0.067033203125,-0.13885449218749998,10.15313623046875,0.0,0.0,0.0,359.0834846301695,0.508163094779535,183.0492044139817
2026-09-28 19:01:03.417600000,-0.059851074218749994,-0.162794921875,10.14356005859375,0.0,0.0,0.0,359.08383184520244,0.5079421252320797,183.0493356312955
2026-09-28 19:01:03.425615104,-0.07900341796874999,-0.14364257812499998,10.157924316406248,0.0,0.0,-0.0010652644360316954,359.08380656713933,0.5081924527743595,183.0491563241776
2026-09-28 19:01:03.425615104,-0.076609375,-0.15321875,10.16989453125,0.0,-0.0010652644360316954,0.0,359.08420819445746,0.5077638288004777,183.04899260099
2026-09-28 19:01:03.425615104,-0.0622451171875,-0.15082470703124998,10.14834814453125,0.0,-0.0010652644360316954,0.0,359.084623606441,0.5071835340533962,183.04912927852027
2026-09-28 19:01:03.425615104,-0.043092773437499995,-0.162794921875,10.157924316406248,0.0,0.0,0.0,359.08454431478594,0.5071762389775186,183.0492593602628
2026-09-28 19:01:03.433614336,-0.11252001953124999,-0.14124853515625,10.172288574218749,0.0,-0.0010652644360316954,0.0,359.0845625850517,0.5070802784511749,183.04969066490528
2026-09-28 19:01:03.441615104,-0.0622451171875,-0.15082470703124998,10.167500488281249,0.0,0.0,0.0,359.08447625568664,0.5074071988649206,183.04951338349366
2026-09-28 19:01:03.466014720,-0.0813974609375,-0.16997705078124997,10.184258789062499,0.0,0.0,0.0,359.0850713534536,0.5070286696482184,183.04994934187448
2026-09-28 19:01:03.466014720,-0.11252001953124999,-0.18912939453125,10.124407714843748,0.0,0.0,0.0,359.0848492762176,0.5068675695552172,183.04977298006216
2026-09-28 19:01:03.466014720,-0.07421533203125,-0.13167236328124998,10.15313623046875,0.0,-0.0010652644360316954,0.0,359.0844351246554,0.5068220276365059,183.0499050485702
2026-09-28 19:01:03.481710336,-0.1149140625,-0.1675830078125,10.172288574218749,0.0,-0.0010652644360316954,-0.0010652644360316954,359.0849780690237,0.506126776987749,183.0494375978863
2026-09-28 19:01:03.497426688,-0.08857958984374999,-0.13885449218749998,10.122013671875,0.0,-0.0010652644360316954,-0.0010652644360316954,359.0853391494299,0.5061986849625905,183.04895864563235
2026-09-28 19:01:03.497426688,-0.07182128906249999,-0.14364257812499998,10.239321777343749,0.0,0.0,-0.0010652644360316954,359.0853330364768,0.5062292523198124,183.0487844628629
2026-09-28 19:01:03.512927488,-0.1005498046875,-0.181947265625,10.21538134765625,0.0,0.0,0.0010652644360316954,359.08506939162226,0.5058564805463802,183.0495308587123
2026-09-28 19:01:03.528574464,-0.076609375,-0.181947265625,10.14834814453125,0.0,-0.0010652644360316954,0.0,359.08526530377446,0.5055139086734014,183.04966558956642
2026-09-28 19:01:03.528574464,-0.067033203125,-0.13167236328124998,10.107649414062498,0.0,-0.0010652644360316954,0.0,359.08498667908657,0.5046417427316328,183.0494985355052
2026-09-28 19:01:03.544301312,-0.067033203125,-0.15800683593749998,10.162712402343749,0.0,-0.0010652644360316954,0.0,359.0847465324364,0.5045272668784406,183.0493248318206
2026-09-28 19:01:03.559968512,-0.067033203125,-0.18673535156249998,10.129195800781249,0.0021305288720633907,0.0,0.0,359.0857398522802,0.5048248310583866,183.04914142014374
2026-09-28 19:01:03.559968512,-0.05027490234375,-0.1675830078125,10.095679199218749,0.0,-0.0010652644360316954,0.0,359.08560676412117,0.504589331264511,183.04957628398802
2026-09-28 19:01:03.577389312,-0.07182128906249999,-0.14603662109374999,10.14356005859375,0.0,0.0,0.0,359.0853107948934,0.5049469991053139,183.04969746424192
2026-09-28 19:01:03.592406784,-0.076609375,-0.16997705078124997,10.198623046875,0.0,-0.0010652644360316954,0.0,359.08541716723397,0.5040023710662851,183.0498388997963
2026-09-28 19:01:03.601018368,-0.08379150390625,-0.15082470703124998,10.19144091796875,0.0,0.0,0.0,359.0859731167236,0.5034713690156247,183.04936656366007
2026-09-28 19:01:03.601018368,-0.05745703125,-0.1675830078125,10.167500488281249,0.0,0.0,0.0,359.0866950441081,0.5036318899962565,183.0497986872431
2026-09-28 19:01:03.617924608,-0.07421533203125,-0.1484306640625,10.141166015624998,0.0,-0.0010652644360316954,0.0,359.08661157988007,0.5034995521170457,183.0493185130637
2026-09-28 19:01:03.632586240,-0.0909736328125,-0.16997705078124997,10.124407714843748,0.0,0.0010652644360316954,0.0,359.0872126211758,0.5030843541829174,183.05005957033958
2026-09-28 19:01:03.639766528,-0.06463916015625,-0.15082470703124998,10.189046874999999,0.0,-0.0010652644360316954,0.0,359.0867600710513,0.5030166458577225,183.05018910196452
2026-09-28 19:01:03.648397312,-0.08857958984374999,-0.17237109374999998,10.122013671875,0.0,0.0,0.0,359.0867617401001,0.5033657501419281,183.05061545393295
2026-09-28 19:01:03.648397312,-0.076609375,-0.13646044921875,10.184258789062499,0.0,-0.0010652644360316954,0.0,359.0866119562159,0.5029152700525499,183.05074989776153
2026-09-28 19:01:03.664257024,-0.0622451171875,-0.16997705078124997,10.167500488281249,0.0,0.0,0.0,359.08668805112814,0.5036454277487058,183.05026148150054
2026-09-28 19:01:03.679719936,-0.0813974609375,-0.15561279296875,10.179470703124998,0.0,0.0,0.0,359.0870840793264,0.503200838666593,183.05008534316033
2026-09-28 19:01:03.686935296,-0.0622451171875,-0.16040087890625,10.18665283203125,0.0,0.0,0.0,359.08737611255196,0.5032779198295472,183.050216104485
2026-09-28 19:01:03.695450624,-0.11012597656249999,-0.16997705078124997,10.19144091796875,0.0,0.0,0.0,359.08712736155553,0.5035315697181175,183.0506478152581
2026-09-28 19:01:03.695450624,-0.07421533203125,-0.16997705078124997,10.157924316406248,0.0010652644360316954,0.0,0.0,359.08744146269424,0.5039814835310649,183.05077392852095
2026-09-28 19:01:03.726721792,-0.11012597656249999,-0.19870556640624998,10.167500488281249,0.0010652644360316954,0.0,0.0,359.0881402261099,0.5034702461097194,183.05060246145223
2026-09-28 19:01:03.726721792,-0.06463916015625,-0.16040087890625,10.138771972656249,0.0,0.0,0.0,359.0880998651949,0.5032482872674843,183.05042989981294
2026-09-28 19:01:03.758543872,-0.076609375,-0.19152343749999998,10.10525537109375,0.0010652644360316954,0.0,0.0,359.0882663130553,0.5034538021584409,183.05085988503225
2026-09-28 19:01:03.758543872,-0.07182128906249999,-0.15321875,10.157924316406248,0.0,0.0010652644360316954,0.0,359.08867136091436,0.5042422063793635,183.05127957384235
2026-09-28 19:01:03.789820416,-0.055062988281249996,-0.162794921875,10.13158984375,0.0,0.0,-0.0010652644360316954,359.0896991552646,0.5041803028969457,183.05110627989848
2026-09-28 19:01:03.794074624,-0.07421533203125,-0.181947265625,10.196229003906248,0.0010652644360316954,0.0,0.0,359.0897565069664,0.5044104927141726,183.05153529861
2026-09-28 19:01:03.794074624,-0.10294384765624999,-0.162794921875,10.1651064453125,0.0,0.0,0.0,359.0900209096678,0.5044569806224153,183.05166084882364
2026-09-28 19:01:03.805594624,-0.07421533203125,-0.13646044921875,10.08610302734375,0.0010652644360316954,0.0,0.0,359.0910825482969,0.5051190234915397,183.05117306764313
2026-09-28 19:01:03.805594624,-0.08618554687499999,-0.124490234375,10.138771972656249,0.0,0.0,0.0,359.0915128622108,0.5055305016578754,183.0513002031697
2026-09-28 19:01:03.805594624,-0.04069873046875,-0.13885449218749998,10.14834814453125,0.0010652644360316954,0.0,0.0,359.09204660187896,0.5055506461024274,183.0514330742774
2026-09-28 19:01:03.805594624,-0.07421533203125,-0.1675830078125,10.162712402343749,-0.0010652644360316954,-0.0010652644360316954,0.0,359.0914520401356,0.5051208571768682,183.0515640795276
2026-09-28 19:01:03.838956032,-0.07900341796874999,-0.13885449218749998,10.157924316406248,0.0,0.0,0.0,359.09225115608734,0.5047386598762987,183.0513887053257
2026-09-28 19:01:03.852978176,-0.08618554687499999,-0.1292783203125,10.141166015624998,0.0,0.0,0.0,359.0926080417723,0.5049946158059444,183.05121001444627
2026-09-28 19:01:03.852978176,-0.08379150390625,-0.1963115234375,10.167500488281249,0.0,-0.0010652644360316954,0.0,359.0927929929449,0.5045528419928041,183.05134737015
2026-09-28 19:01:03.852978176,-0.0622451171875,-0.1675830078125,10.13158984375,0.0,0.0,0.0,359.09243778192564,0.5048061877959353,183.05177544553982
2026-09-28 19:01:03.860580608,-0.11012597656249999,-0.16997705078124997,10.14834814453125,0.0,-0.0010652644360316954,0.0,359.0922864435545,0.5039713309990215,183.05130441220288
2026-09-28 19:01:03.870052608,-0.04548681640625,-0.11252001953124999,10.184258789062499,0.0,0.0,0.0,359.0923674858706,0.5047631920340525,183.05142636714362
2026-09-28 19:01:03.885211904,-0.11970214843749999,-0.16040087890625,10.217775390624999,0.0,0.0,0.0,359.09284725877944,0.5041425213700418,183.0512583403655
2026-09-28 19:01:03.885211904,-0.07182128906249999,-0.1675830078125,10.133983886718749,0.0,0.0,0.0,359.09305397928483,0.5039095103069057,183.05139319684264
2026-09-28 19:01:03.901889280,-0.05266894531249999,-0.14124853515625,10.1651064453125,0.0,0.0,-0.0010652644360316954,359.09293852514475,0.5036541161068763,183.05122068106638
2026-09-28 19:01:03.918942208,-0.08379150390625,-0.17955322265624998,10.138771972656249,0.0,-0.0021305288720633907,0.0,359.0932906967449,0.5027395322867287,183.05166669536368
2026-09-28 19:01:03.918942208,-0.07900341796874999,-0.15321875,10.150742187499999,0.0010652644360316954,0.0,0.0,359.09341462775006,0.5026504600226352,183.05210115743972
2026-09-28 19:01:03.932953088,-0.07182128906249999,-0.15561279296875,10.18186474609375,0.0010652644360316954,0.0,0.0,359.094187261931,0.5026737070316198,183.05284364919805
2026-09-28 19:01:03.949945344,-0.07421533203125,-0.17955322265624998,10.133983886718749,0.0,-0.0010652644360316954,0.0,359.0938302439364,0.5026051668771597,183.05297401361724
2026-09-28 19:01:03.954901248,-0.09576171874999999,-0.1675830078125,10.16989453125,0.0,0.0,-0.0010652644360316954,359.09379389295617,0.5022524608828121,183.05249916144223
2026-09-28 19:01:03.964778496,-0.059851074218749994,-0.1675830078125,10.133983886718749,0.0,0.0,0.0,359.09367763652796,0.5021843249740844,183.0526289249887
2026-09-28 19:01:03.969563648,-0.06942724609374999,-0.15321875,10.0597685546875,0.0,0.0,0.0,359.0934886170931,0.5023393074097493,183.05244809959692
2026-09-28 19:01:03.980570624,-0.07182128906249999,-0.181947265625,10.1363779296875,0.0,0.0,0.0,359.0934657326317,0.5022652711159865,183.05257872603755
2026-09-28 19:01:03.996205824,-0.0622451171875,-0.16040087890625,10.14834814453125,0.0,0.0,0.0,359.0936394966585,0.5026696564787693,183.05239362620495
2026-09-28 19:01:03.996205824,-0.10533789062499999,-0.13646044921875,10.22495751953125,0.0,0.0,0.0,359.09353280300076,0.502298095810542,183.05252835803557
2026-09-28 19:01:04.011829760,-0.05745703125,-0.17237109374999998,10.179470703124998,0.0,0.0,0.0,359.0939739809778,0.5023423752343574,183.0523551866936
2026-09-28 19:01:04.011829760,-0.08618554687499999,-0.1484306640625,10.1651064453125,-0.0010652644360316954,-0.0010652644360316954,0.0,359.0933898190419,0.5013950168958989,183.0521906989878
2026-09-28 19:01:04.027630336,-0.08857958984374999,-0.15321875,10.155530273437499,0.0,-0.0010652644360316954,0.0,359.0926098538008,0.5009912306973057,183.05263004155984
2026-09-28 19:01:04.043377408,-0.0909736328125,-0.15082470703124998,10.11961962890625,0.0,-0.0010652644360316954,0.0,359.0925046766651,0.5008817000680165,183.0524547266605
2026-09-28 19:01:04.058893568,-0.0813974609375,-0.18912939453125,10.184258789062499,0.0,0.0,0.0,359.0928806394085,0.5013663194407841,183.05288159496004
2026-09-28 19:01:04.074678272,-0.07182128906249999,-0.12209619140624998,10.155530273437499,0.0,0.0,0.0,359.0930792594018,0.5009651590521802,183.05271120393098
2026-09-28 19:01:04.106004224,-0.0909736328125,-0.16040087890625,10.13158984375,0.0,0.0,0.0,359.09358928676784,0.5005546447278189,183.05254346070035
2026-09-28 19:01:04.108165120,-0.0622451171875,-0.20828173828125,10.1363779296875,-0.0010652644360316954,0.0,0.0,359.0933860246192,0.5009045456491238,183.05267035367177
2026-09-28 19:01:04.129906688,-0.10533789062499999,-0.13646044921875,10.167500488281249,0.0,0.0,0.0,359.0934580490574,0.5008311589974043,183.05310426069437
2026-09-28 19:01:04.129906688,-0.09815576171875,-0.18912939453125,10.124407714843748,0.0,0.0,0.0010652644360316954,359.0938784844735,0.5010725117730583,183.05415148603635
2026-09-28 19:01:04.145656064,-0.05027490234375,-0.18912939453125,10.157924316406248,0.0,-0.0010652644360316954,0.0,359.09315722160204,0.5012299823496832,183.05397344313963
2026-09-28 19:01:04.145656064,-0.07182128906249999,-0.15800683593749998,10.150742187499999,0.0,-0.0010652644360316954,0.0010652644360316954,359.09270807025797,0.5008935693351697,183.0544080869172
2026-09-28 19:01:04.145656064,-0.09815576171875,-0.17476513671875,10.189046874999999,0.0,0.0,0.0,359.09279877694473,0.5010044817639323,183.0545348629345
2026-09-28 19:01:04.161294080,-0.09576171874999999,-0.162794921875,10.1746826171875,0.0010652644360316954,0.0,0.0,359.0931581768588,0.5010786512642952,183.0552737337976
2026-09-28 19:01:04.161294080,-0.11730810546874999,-0.13406640625,10.133983886718749,0.0,0.0,0.0,359.0934236808672,0.501041540643572,183.05540420563725
2026-09-28 19:01:04.161294080,-0.076609375,-0.15321875,10.150742187499999,0.0,-0.0010652644360316954,0.0,359.09356653307105,0.5005870327443093,183.05585109167836
2026-09-28 19:01:04.178045696,-0.067033203125,-0.16518896484374998,10.189046874999999,0.0,0.0,0.0,359.0934072888017,0.5011143498303166,183.0556683436611
2026-09-28 19:01:04.178045696,-0.076609375,-0.13885449218749998,10.145954101562499,0.0,0.0,0.0,359.09297971399667,0.501371164713192,183.05518305563288
2026-09-28 19:01:04.192561920,-0.0622451171875,-0.19391748046875,10.15313623046875,0.0,0.0,0.0,359.0936528029537,0.5014209669396159,183.05561957421008
2026-09-28 19:01:04.208211712,-0.0909736328125,-0.15561279296875,10.1651064453125,0.0,0.0,0.0,359.09327722586005,0.5013856863066422,183.05574714756108
2026-09-28 19:01:04.214122752,-0.07421533203125,-0.16997705078124997,10.244109863281249,0.0,0.0,0.0,359.0932543613434,0.5018631150831138,183.0558681388565
2026-09-28 19:01:04.225740800,-0.09815576171875,-0.14124853515625,10.17707666015625,0.0,0.0,0.0,359.0934809773759,0.5018101256487506,183.0562985805379
2026-09-28 19:01:04.240260096,-0.10294384765624999,-0.15082470703124998,10.155530273437499,0.0,0.0,0.0,359.09347661823455,0.5016941722681629,183.056429397888
2026-09-28 19:01:04.240260096,-0.09815576171875,-0.18673535156249998,10.157924316406248,0.0,0.0,0.0,359.09378338508407,0.5016473035513666,183.05686525122223
2026-09-28 19:01:04.255896320,-0.08379150390625,-0.181947265625,10.112437499999999,0.0,0.0010652644360316954,0.0,359.09329448231335,0.502542383595483,183.05728254646615
2026-09-28 19:01:04.255896320,-0.06942724609374999,-0.15800683593749998,10.155530273437499,0.0010652644360316954,0.0,0.0,359.0936847713374,0.5026333149028428,183.05710143356097
2026-09-28 19:01:04.287180032,-0.067033203125,-0.15561279296875,10.09328515625,0.0,0.0,0.0,359.0939234933379,0.5024205388661199,183.05723167247928
2026-09-28 19:01:04.287180032,-0.08379150390625,-0.11970214843749999,10.227351562499999,0.0,-0.0010652644360316954,0.0,359.09379530383137,0.5022329436298204,183.05705622285328
2026-09-28 19:01:04.304182016,-0.1005498046875,-0.14603662109374999,10.141166015624998,0.0,-0.0010652644360316954,0.0,359.0937589485649,0.501965314979862,183.05719150468218
2026-09-28 19:01:04.308958976,-0.059851074218749994,-0.17237109374999998,10.11961962890625,0.0,0.0,0.0,359.09322628638296,0.502265095707019,183.0570130298299
2026-09-28 19:01:04.318675712,-0.11012597656249999,-0.16518896484374998,10.17707666015625,0.0010652644360316954,0.0,0.0,359.0934097218376,0.5024987424502921,183.05744319460928
2026-09-28 19:01:04.318675712,-0.09336767578124999,-0.16518896484374998,10.16989453125,0.0010652644360316954,0.0,0.0,359.09398984874093,0.5024408422292056,183.05726862450797
2026-09-28 19:01:04.334328576,-0.047880859374999994,-0.15800683593749998,10.129195800781249,0.0,0.0,0.0,359.0943196615898,0.502268771043779,183.05739966970157
2026-09-28 19:01:04.349947904,-0.07421533203125,-0.19391748046875,10.117225585937499,0.0,0.0010652644360316954,0.0,359.0942904034498,0.5026344733575973,183.0578257862541
2026-09-28 19:01:04.349947904,-0.08857958984374999,-0.162794921875,10.14834814453125,0.0,0.0,0.0,359.09407501926853,0.5032111932536982,183.05825033351704
2026-09-28 19:01:04.365713920,-0.09336767578124999,-0.13406640625,10.16989453125,0.0,0.0,0.0,359.09369493562315,0.5033464697450042,183.05777024338423
2026-09-28 19:01:04.365713920,-0.07182128906249999,-0.181947265625,10.196229003906248,0.0,0.0,0.0,359.0939069279161,0.5033044801594274,183.05790021228677
2026-09-28 19:01:04.381352448,-0.067033203125,-0.15561279296875,10.11961962890625,0.0,0.0,0.0,359.0937445063081,0.5034437092478975,183.05771961836035
2026-09-28 19:01:04.397413632,-0.09576171874999999,-0.1292783203125,10.172288574218749,-0.0010652644360316954,-0.0010652644360316954,0.0,359.0931193010604,0.5036206091349479,183.0581506896518
2026-09-28 19:01:04.407579904,-0.08379150390625,-0.14603662109374999,10.179470703124998,0.0,0.0,0.0,359.0929996823875,0.5039031708348594,183.05797332019495
2026-09-28 19:01:04.412796416,-0.10773193359375,-0.16518896484374998,10.124407714843748,0.0,-0.0010652644360316954,0.0,359.0926804749113,0.5034302130573134,183.05841383392746
2026-09-28 19:01:04.428441088,-0.08379150390625,-0.17237109374999998,10.2034111328125,0.0,0.0,0.0,359.09283902700804,0.5032370183790245,183.05824304583945
2026-09-28 19:01:04.433101312,-0.047880859374999994,-0.16997705078124997,10.19144091796875,-0.0010652644360316954,-0.0010652644360316954,0.0,359.0920487356838,0.5031798557803584,183.05837225475193
2026-09-28 19:01:04.475455232,-0.067033203125,-0.162794921875,10.160318359375,-0.0010652644360316954,-0.0010652644360316954,0.0,359.0912747318257,0.5029367047332309,183.058501598341
2026-09-28 19:01:04.475455232,-0.10773193359375,-0.15800683593749998,10.16989453125,-0.0010652644360316954,0.0,0.0,359.0902219470805,0.5028409774014009,183.05863119205307
2026-09-28 19:01:04.491070720,-0.059851074218749994,-0.19391748046875,10.189046874999999,0.0,-0.0021305288720633907,0.0,359.08975381139516,0.502340723512498,183.05907067256254
2026-09-28 19:01:04.491070720,-0.07182128906249999,-0.15800683593749998,10.145954101562499,0.0,0.0,-0.0010652644360316954,359.0896701468171,0.5022946205289505,183.0588882224906
2026-09-28 19:01:04.522538752,-0.10773193359375,-0.15082470703124998,10.1268017578125,0.0,0.0,0.0,359.08964545857526,0.5022853953566534,183.05840369808425
2026-09-28 19:01:04.553582080,-0.04548681640625,-0.162794921875,10.157924316406248,0.0,0.0,0.0010652644360316954,359.08954365445305,0.5025322316810051,183.05883394964286
2026-09-28 19:01:04.559107584,-0.06463916015625,-0.16040087890625,10.129195800781249,0.0,0.0,-0.0010652644360316954,359.0904573944304,0.5023325841680732,183.05804948263082
2026-09-28 19:01:04.561149952,-0.08857958984374999,-0.162794921875,10.155530273437499,0.0,0.0,0.0,359.0904043091816,0.5024359037632209,183.05786983523535
2026-09-28 19:01:04.564628480,-0.07182128906249999,-0.13167236328124998,10.160318359375,0.0,0.0,0.0,359.09103050269107,0.5019468697513956,183.0580056692174
2026-09-28 19:01:04.566726144,-0.055062988281249996,-0.16040087890625,10.189046874999999,0.0,0.0,0.0,359.09108660152833,0.5017562810989079,183.05844213680453
2026-09-28 19:01:04.572040448,-0.06463916015625,-0.16997705078124997,10.157924316406248,-0.0010652644360316954,0.0,0.0,359.09086677337774,0.5018365252944473,183.05856892193074
2026-09-28 19:01:04.572040448,-0.0622451171875,-0.14124853515625,10.160318359375,0.0010652644360316954,0.0,0.0,359.09133370919716,0.5018664722018885,183.05808347019405
2026-09-28 19:01:04.574224128,-0.07182128906249999,-0.1292783203125,10.145954101562499,0.0,0.0,0.0,359.09195084298744,0.5013024067071552,183.05852433714418
2026-09-28 19:01:04.580017408,-0.08379150390625,-0.162794921875,10.162712402343749,0.0,0.0,0.0,359.0920541194516,0.5011025532763612,183.05835091310365
2026-09-28 19:01:04.584632576,-0.08618554687499999,-0.16040087890625,10.1746826171875,0.0,-0.0010652644360316954,0.0,359.09222424665813,0.500385517073714,183.0581850074943
2026-09-28 19:01:04.584632576,-0.08379150390625,-0.1484306640625,10.15313623046875,0.0,0.0010652644360316954,0.0,359.0927801386918,0.5000742920897835,183.05770781063245
2026-09-28 19:01:04.616251904,-0.0909736328125,-0.14603662109374999,10.107649414062498,0.0,-0.0010652644360316954,0.0,359.09353890555064,0.4991976375844744,183.05723938380646
2026-09-28 19:01:04.616251904,-0.09336767578124999,-0.17237109374999998,10.16989453125,-0.0010652644360316954,0.0,0.0,359.0934567014172,0.4991581665998746,183.05767462981305
2026-09-28 19:01:04.631898880,-0.09336767578124999,-0.14364257812499998,10.138771972656249,0.0,0.0,0.0,359.0934448680162,0.4993102566554198,183.05719028691692
2026-09-28 19:01:04.639892736,-0.09815576171875,-0.162794921875,10.179470703124998,0.0,0.0,-0.0010652644360316954,359.0935470633449,0.49960321956882203,183.05701205215837
2026-09-28 19:01:04.655987456,-0.07900341796874999,-0.13646044921875,10.145954101562499,0.0,0.0,0.0,359.09373013434475,0.4998746965076946,183.0571396678633
2026-09-28 19:01:04.655987456,-0.059851074218749994,-0.15800683593749998,10.160318359375,-0.0010652644360316954,0.0,0.0,359.09322204234127,0.49986157742535964,183.05696630379487
2026-09-28 19:01:04.676013056,-0.10773193359375,-0.1484306640625,10.160318359375,0.0,0.0,-0.0010652644360316954,359.09328278696955,0.49914189756111804,183.05649226208087
2026-09-28 19:01:04.676013056,-0.059851074218749994,-0.162794921875,10.1268017578125,0.0,-0.0010652644360316954,0.0,359.0932925445359,0.49882521588821,183.0563227736216
2026-09-28 19:01:04.685380096,-0.12688427734375,-0.1675830078125,10.184258789062499,0.0,-0.0010652644360316954,0.0010652644360316954,359.0927894537841,0.4980831960939112,183.05676175578486
2026-09-28 19:01:04.699922176,-0.055062988281249996,-0.14364257812499998,10.196229003906248,0.0,0.0,0.0,359.0924114231287,0.49863078518544024,183.0574973961342
2026-09-28 19:01:04.699922176,-0.10294384765624999,-0.15082470703124998,10.141166015624998,0.0,-0.0010652644360316954,0.0,359.0918051154621,0.4984384622785316,183.0576283507537
2026-09-28 19:01:04.715729408,-0.047880859374999994,-0.162794921875,10.201017089843749,0.0,0.0,-0.0010652644360316954,359.09217055931765,0.49872951229284984,183.05714458755392
2026-09-28 19:01:04.731199232,-0.07421533203125,-0.14364257812499998,10.201017089843749,0.0,0.0,0.0,359.09202800535354,0.4989289563599013,183.0569641464974
2026-09-28 19:01:04.732043520,-0.08618554687499999,-0.16040087890625,10.19144091796875,0.0,0.0021305288720633907,0.0,359.0922065998099,0.49980262799177627,183.05677688755964
2026-09-28 19:01:04.747069696,-0.09815576171875,-0.16518896484374998,10.117225585937499,0.0,-0.0010652644360316954,0.0,359.0924749348453,0.49968750250735244,183.05690744210798
2026-09-28 19:01:04.747069696,-0.09576171874999999,-0.16040087890625,10.189046874999999,0.0,0.0,0.0,359.0926715771416,0.49973475207186463,183.0570372883672
2026-09-28 19:01:04.762880000,-0.05027490234375,-0.16518896484374998,10.155530273437499,0.0,0.0,0.0,359.0926617038966,0.5003023754889012,183.05685324160626
2026-09-28 19:01:04.778439680,-0.10773193359375,-0.14124853515625,10.145954101562499,0.0,-0.0010652644360316954,0.0,359.0923849786061,0.49973657852694375,183.0569892135857
2026-09-28 19:01:04.794041088,-0.07421533203125,-0.12209619140624998,10.14356005859375,0.0,0.0,0.0,359.0926536892649,0.4994551385655726,183.05742972374168
2026-09-28 19:01:04.794041088,-0.0622451171875,-0.16997705078124997,10.1938349609375,0.0010652644360316954,0.0,0.0010652644360316954,359.09349255045555,0.49939961734555827,183.0578676343619
2026-09-28 19:01:04.809591552,-0.10294384765624999,-0.15561279296875,10.138771972656249,0.0,0.0,0.0,359.0932573303183,0.49964850130882776,183.0582967908626
2026-09-28 19:01:04.825217024,-0.04548681640625,-0.15561279296875,10.16989453125,-0.0010652644360316954,0.0,0.0,359.09287311631414,0.4999184664971427,183.0584220626764
2026-09-28 19:01:04.825217024,-0.076609375,-0.15800683593749998,10.179470703124998,0.0,0.0,-0.0010652644360316954,359.0932969324396,0.4996797275806723,183.05824888318176
2026-09-28 19:01:04.856877312,-0.05027490234375,-0.17955322265624998,10.133983886718749,0.0,0.0,0.0,359.09401290942264,0.4994269877287236,183.058075526875
2026-09-28 19:01:04.888294400,-0.08857958984374999,-0.13885449218749998,10.196229003906248,-0.0010652644360316954,-0.0010652644360316954,0.0,359.0935395227349,0.4994312510265976,183.05789491237007
2026-09-28 19:01:04.888294400,-0.06942724609374999,-0.12209619140624998,10.184258789062499,0.0,0.0,0.0,359.09371098796277,0.49933805543857623,183.05772211099517
2026-09-28 19:01:04.903937792,-0.11252001953124999,-0.16040087890625,10.160318359375,0.0,-0.0010652644360316954,0.0,359.0931129339732,0.49939064746479084,183.05754797243114
2026-09-28 19:01:04.903937792,-0.067033203125,-0.16518896484374998,10.155530273437499,0.0,0.0,0.0,359.09324560994315,0.49978718014731943,183.0579776107583
2026-09-28 19:01:04.907083520,-0.07182128906249999,-0.18434130859374998,10.19144091796875,0.0010652644360316954,0.0,0.0,359.09348600602374,0.4996259192794949,183.05841300764826
2026-09-28 19:01:04.907083520,-0.05266894531249999,-0.16518896484374998,10.1746826171875,0.0,-0.0010652644360316954,0.0010652644360316954,359.09292907608585,0.4996893398829348,183.05915189433955
2026-09-28 19:01:04.907083520,-0.08618554687499999,-0.181947265625,10.102861328125,0.0,0.0,0.0,359.0928879322391,0.4997958686249207,183.05897238381755
2026-09-28 19:01:04.919597056,-0.07182128906249999,-0.162794921875,10.160318359375,0.0010652644360316954,0.0,0.0,359.09306564678116,0.5000383230741394,183.05879207787416
2026-09-28 19:01:04.935237632,-0.10294384765624999,-0.19391748046875,10.157924316406248,0.0,-0.0010652644360316954,0.0,359.09264258566714,0.4994131627521672,183.05862640566127
2026-09-28 19:01:04.935237632,-0.07421533203125,-0.17237109374999998,10.157924316406248,0.0,0.0,0.0,359.0918045563522,0.49954772284642923,183.0584474269353
2026-09-28 19:01:04.935237632,-0.07900341796874999,-0.17715917968749997,10.145954101562499,0.0,0.0,0.0,359.0917878238356,0.49935734307852686,183.05888059993322
2026-09-28 19:01:04.951021824,-0.076609375,-0.14124853515625,10.15313623046875,0.0,0.0,0.0,359.09188225179025,0.49961610750982355,183.0590047389438
2026-09-28 19:01:04.966486528,-0.08618554687499999,-0.1675830078125,10.11483154296875,0.0,-0.0010652644360316954,0.0,359.09163012594803,0.4996095981850861,183.0591360230532
2026-09-28 19:01:04.973542400,-0.09576171874999999,-0.13406640625,10.17707666015625,0.0,0.0,0.0,359.0915099981954,0.499664247114137,183.05896064660166
2026-09-28 19:01:04.982551296,-0.0813974609375,-0.201099609375,10.141166015624998,0.0,0.0010652644360316954,0.0,359.0913989285484,0.5001772341686263,183.05938601107982
2026-09-28 19:01:05.001561088,-0.0909736328125,-0.16997705078124997,10.179470703124998,0.0010652644360316954,0.0,0.0,359.09157530411306,0.5000894106089938,183.05951308889107
2026-09-28 19:01:05.014071808,-0.0813974609375,-0.15321875,10.1268017578125,0.0,-0.0010652644360316954,0.0,359.09204385034803,0.4999468554362797,183.0596474695701
2026-09-28 19:01:05.014071808,-0.07182128906249999,-0.14603662109374999,10.141166015624998,0.0,0.0,0.0,359.09161507852434,0.49986313129635596,183.05977232543236
2026-09-28 19:01:05.031002368,-0.06463916015625,-0.1675830078125,10.162712402343749,-0.0010652644360316954,0.0,0.0,359.09108727064813,0.49970810815495287,183.06033975842342
2026-09-28 19:01:05.045513984,-0.04548681640625,-0.15321875,10.1651064453125,0.0,0.0,0.0,359.090582658512,0.4994056602096141,183.0601636554744
2026-09-28 19:01:05.061537792,-0.0383046875,-0.162794921875,10.2034111328125,0.0,-0.0010652644360316954,0.0,359.0909062766244,0.49888164153384207,183.0602946483772
2026-09-28 19:01:05.061537792,-0.067033203125,-0.17715917968749997,10.22495751953125,0.0,0.0,0.0,359.0908443906736,0.4987108145367247,183.06011497469132
2026-09-28 19:01:05.061537792,-0.1149140625,-0.17955322265624998,10.196229003906248,0.0,0.0,0.0,359.0903788674398,0.49905925506454973,183.06023470225952
2026-09-28 19:01:05.077177600,-0.0383046875,-0.13885449218749998,10.19144091796875,0.0,-0.0010652644360316954,0.0,359.0906937621404,0.4989966891672131,183.0603655759187
2026-09-28 19:01:05.092798720,-0.08857958984374999,-0.13885449218749998,10.184258789062499,0.0,0.0,0.0,359.0905429036842,0.4982070756993352,183.06050255304632
2026-09-28 19:01:05.128368384,-0.09815576171875,-0.15561279296875,10.138771972656249,-0.0010652644360316954,-0.0010652644360316954,0.0,359.0900715517354,0.49786291738416416,183.06094465825706
2026-09-28 19:01:05.128368384,-0.07182128906249999,-0.14364257812499998,10.172288574218749,-0.0010652644360316954,-0.0010652644360316954,0.0,359.0890044524992,0.4974271701385686,183.0613841712846
2026-09-28 19:01:05.130450944,-0.055062988281249996,-0.1484306640625,10.17707666015625,0.0,0.0,0.0,359.08933627910574,0.49718226409740024,183.06152006166798
2026-09-28 19:01:05.140308224,-0.067033203125,-0.17715917968749997,10.150742187499999,0.0,0.0,0.0,359.0894222266398,0.4971739344085816,183.06134154343783
2026-09-28 19:01:05.140308224,-0.035910644531249994,-0.14124853515625,10.133983886718749,0.0,0.0,0.0,359.0893207845651,0.49709324578677067,183.06147147597042
2026-09-28 19:01:05.157119744,-0.09336767578124999,-0.15082470703124998,10.184258789062499,0.0,0.0,0.0,359.0895215893244,0.49687560098802913,183.06129624699983
2026-09-28 19:01:05.176246016,-0.07182128906249999,-0.16997705078124997,10.167500488281249,0.0,0.0,0.0,359.0897175646296,0.4972026548474313,183.0614213295544
2026-09-28 19:01:05.176246016,-0.0909736328125,-0.14364257812499998,10.196229003906248,0.0,0.0,0.0,359.08999114265305,0.49730543938747174,183.06154443428244
2026-09-28 19:01:05.219934464,-0.0813974609375,-0.17955322265624998,10.150742187499999,0.0,-0.0010652644360316954,0.0,359.0900149485294,0.49744507885059663,183.06167550721025
2026-09-28 19:01:05.219934464,-0.059851074218749994,-0.16518896484374998,10.150742187499999,0.0,0.0,0.0,359.09004376441544,0.4976295781938221,183.061799097622
2026-09-28 19:01:05.231844096,-0.06942724609374999,-0.17237109374999998,10.19144091796875,0.0,0.0,0.0,359.0895857668319,0.4973815155765338,183.06162341126026
2026-09-28 19:01:05.231844096,-0.08857958984374999,-0.12209619140624998,10.162712402343749,-0.0010652644360316954,-0.0010652644360316954,-0.0010652644360316954,359.08922049516116,0.4971145301805513,183.06114344869144
2026-09-28 19:01:05.231844096,-0.06942724609374999,-0.14364257812499998,10.162712402343749,0.0,0.0,0.0,359.08915099704956,0.4968981679757583,183.06127639215936
2026-09-28 19:01:05.247549184,-0.07900341796874999,-0.162794921875,10.212987304687498,0.0,0.0,0.0,359.09017870774187,0.49656493148928066,183.06141295501428
2026-09-28 19:01:05.247549184,-0.08857958984374999,-0.19152343749999998,10.18665283203125,0.0,0.0,0.0,359.0901747417798,0.4966480436924985,183.06123367203512
2026-09-28 19:01:05.247549184,-0.07421533203125,-0.13646044921875,10.155530273437499,0.0,0.0,0.0,359.08977381652113,0.49720060609730427,183.06135388984413
2026-09-28 19:01:05.263118080,-0.10294384765624999,-0.15561279296875,10.112437499999999,0.0,-0.0010652644360316954,0.0,359.0895921673517,0.49716425853059154,183.06209596994464
2026-09-28 19:01:05.278746112,-0.10533789062499999,-0.15561279296875,10.16989453125,0.0,0.0,0.0,359.08923469512536,0.4978077976702016,183.06191147805228
2026-09-28 19:01:05.278746112,-0.076609375,-0.14124853515625,10.18665283203125,0.0,0.0,0.0,359.08960853098006,0.498336789499033,183.0614278039821
2026-09-28 19:01:05.294379776,-0.076609375,-0.162794921875,10.160318359375,0.0,0.0,0.0,359.09022372489045,0.4980411283338579,183.061558748296
2026-09-28 19:01:05.310151680,-0.08379150390625,-0.15561279296875,10.1363779296875,0.0,0.0,0.0,359.09116743236495,0.49760795747357206,183.06138955389306
2026-09-28 19:01:05.310151680,-0.10773193359375,-0.19870556640624998,10.172288574218749,0.0,0.0,0.0,359.09141103209646,0.49745120288941186,183.0618250339498
2026-09-28 19:01:05.328340992,-0.06942724609374999,-0.15082470703124998,10.172288574218749,0.0,0.0,0.0,359.0908895847304,0.49755085857658665,183.06195395600653
2026-09-28 19:01:05.328340992,-0.09576171874999999,-0.17476513671875,10.17707666015625,0.0,-0.0010652644360316954,0.0,359.09024325634385,0.4978922355109089,183.06207961640766
2026-09-28 19:01:05.341357824,-0.07421533203125,-0.1675830078125,10.157924316406248,0.0,0.0,0.0,359.0905125619353,0.49807447885332484,183.0622052860627
2026-09-28 19:01:05.357017600,-0.09576171874999999,-0.19391748046875,10.1651064453125,0.0,0.0,0.0,359.090746964451,0.4978556578036658,183.06234035426823
2026-09-28 19:01:05.357017600,-0.10773193359375,-0.16518896484374998,10.117225585937499,0.0,0.0,-0.0010652644360316954,359.0908537654752,0.49790028062430064,183.06216439320002
2026-09-28 19:01:05.372640000,-0.0813974609375,-0.1149140625,10.160318359375,0.0,0.0,0.0010652644360316954,359.091530810169,0.49823528623540314,183.06259611425673
2026-09-28 19:01:05.388379904,-0.1005498046875,-0.124490234375,10.122013671875,0.0,0.0,0.0,359.091580951352,0.4985381715819395,183.0627226070279
2026-09-28 19:01:05.388379904,-0.076609375,-0.14124853515625,10.08610302734375,0.0,0.0,0.0,359.0919637095696,0.49830940823361763,183.0628588972742
2026-09-28 19:01:05.403880192,-0.0622451171875,-0.1484306640625,10.1938349609375,0.0,0.0,0.0,359.0924607983328,0.49852133191742026,183.06298656392488
2026-09-28 19:01:05.419648768,-0.1005498046875,-0.13885449218749998,10.2034111328125,0.0,0.0,0.0,359.09230340287047,0.49878056003990306,183.06311382186306
2026-09-28 19:01:05.419648768,-0.08379150390625,-0.13167236328124998,10.22495751953125,0.0,0.0,0.0,359.0920145298221,0.4990853677687572,183.06293493911207
2026-09-28 19:01:05.435339264,-0.11252001953124999,-0.13646044921875,10.1268017578125,0.0,0.0,0.0,359.0918900428688,0.499108945117814,183.0627573311686
2026-09-28 19:01:05.450758400,-0.059851074218749994,-0.14603662109374999,10.112437499999999,0.0,0.0,0.0,359.09186138074904,0.4994754301746392,183.06288310730181
2026-09-28 19:01:05.450758400,-0.07900341796874999,-0.14603662109374999,10.18186474609375,0.0,0.0,0.0,359.0918771785624,0.49940833142595115,183.06331438374812
2026-09-28 19:01:05.466493952,-0.05745703125,-0.15561279296875,10.11483154296875,0.0,0.0,0.0,359.091895105392,0.5000895160790745,183.06343085043
2026-09-28 19:01:05.466493952,-0.0622451171875,-0.15800683593749998,10.157924316406248,0.0,0.0,0.0,359.0918758548526,0.5002846068149067,183.0635567255309
2026-09-28 19:01:05.483451904,-0.06942724609374999,-0.16518896484374998,10.150742187499999,0.0,0.0,-0.0010652644360316954,359.09140671367334,0.5011361937800467,183.06275635917422
2026-09-28 19:01:05.497965312,-0.10294384765624999,-0.15561279296875,10.18186474609375,0.0010652644360316954,0.0010652644360316954,0.0,359.0919285163693,0.5016625682770889,183.06257164037947
2026-09-28 19:01:05.497965312,-0.055062988281249996,-0.1484306640625,10.167500488281249,0.0,0.0,0.0,359.0920460412336,0.5022894816966141,183.0620858348476
2026-09-28 19:01:05.515860224,-0.1005498046875,-0.16040087890625,10.162712402343749,0.0,0.0,0.0,359.0917674248123,0.5023185622546128,183.06160187110487
2026-09-28 19:01:05.529517312,-0.059851074218749994,-0.16040087890625,10.155530273437499,0.0010652644360316954,0.0010652644360316954,0.0,359.092075468928,0.5026837269163474,183.0614226510525
2026-09-28 19:01:05.529517312,-0.0813974609375,-0.15321875,10.198623046875,-0.0010652644360316954,-0.0010652644360316954,0.0,359.0915134809008,0.5023682090695937,183.06185890114287
2026-09-28 19:01:05.545313536,-0.12209619140624998,-0.14364257812499998,10.1746826171875,0.0,0.0,0.0,359.0914409678386,0.5025918395400396,183.06198422005156
2026-09-28 19:01:05.592054528,-0.09336767578124999,-0.1675830078125,10.184258789062499,0.0,0.0010652644360316954,0.0,359.09167046428365,0.5032671814021741,183.0621047113121
2026-09-28 19:01:05.592054528,-0.1005498046875,-0.1675830078125,10.155530273437499,0.0010652644360316954,0.0,0.0,359.0921529873023,0.5037016517544837,183.06222953345923
2026-09-28 19:01:05.623298560,-0.06942724609374999,-0.1675830078125,10.14834814453125,0.0,0.0,0.0,359.0924890263289,0.503326780200187,183.06236272901245
2026-09-28 19:01:05.623298560,-0.0813974609375,-0.17715917968749997,10.13158984375,0.0,0.0010652644360316954,-0.0010652644360316954,359.0923957014986,0.5037711845954915,183.06217801271728
2026-09-28 19:01:05.639312128,-0.08857958984374999,-0.181947265625,10.160318359375,0.0,0.0,0.0,359.09328570484007,0.5037153166167846,183.0623085805244
2026-09-28 19:01:05.639312128,-0.1005498046875,-0.16040087890625,10.14356005859375,0.0,0.0,0.0,359.093277587425,0.5035785431390684,183.0621341990328
2026-09-28 19:01:05.639312128,-0.047880859374999994,-0.14603662109374999,10.21059326171875,0.0010652644360316954,0.0010652644360316954,0.0,359.093579117565,0.5043205024575397,183.0622553409102
2026-09-28 19:01:05.654960384,-0.0622451171875,-0.13885449218749998,10.1651064453125,0.0,0.0,0.0,359.0942227091815,0.504730019798004,183.0626820116339
2026-09-28 19:01:05.654960384,-0.07182128906249999,-0.16518896484374998,10.19144091796875,0.0,0.0,0.0,359.09460255670206,0.5046085015281351,183.06220325633862
2026-09-28 19:01:05.654960384,-0.1005498046875,-0.15321875,10.21059326171875,0.0,0.0,0.0,359.09457837967597,0.504117616730951,183.06264385523642
2026-09-28 19:01:05.654960384,-0.0622451171875,-0.1292783203125,10.18186474609375,0.0,-0.0010652644360316954,0.0,359.09424333066954,0.5040483068342405,183.06277441885146
2026-09-28 19:01:05.654960384,-0.08379150390625,-0.15082470703124998,10.145954101562499,0.0,0.0,0.0,359.09469857849274,0.503723118341695,183.06291135027678
2026-09-28 19:01:05.670711296,-0.05266894531249999,-0.16997705078124997,10.141166015624998,0.0,0.0,0.0,359.09465298797943,0.5036426417799256,183.06304171905307
2026-09-28 19:01:05.687919104,-0.06463916015625,-0.17476513671875,10.150742187499999,0.0,0.0,0.0,359.0948453986675,0.503411025941418,183.06286635152398
2026-09-28 19:01:05.703723776,-0.04548681640625,-0.1675830078125,10.141166015624998,0.0,0.0,0.0,359.09475305330244,0.5033680382182719,183.0629888630336
2026-09-28 19:01:05.706710528,-0.055062988281249996,-0.15561279296875,10.157924316406248,0.0,0.0,0.0,359.0947605529849,0.5029644731301092,183.0628145947337
2026-09-28 19:01:05.717916416,-0.11252001953124999,-0.15321875,10.189046874999999,0.0,0.0,0.0,359.09491066456303,0.5028280471817463,183.06263894851486
2026-09-28 19:01:05.727434240,-0.06942724609374999,-0.17476513671875,10.138771972656249,0.0010652644360316954,0.0010652644360316954,0.0,359.09562811752164,0.5034407859536894,183.063066264968
2026-09-28 19:01:05.774537984,-0.059851074218749994,-0.16518896484374998,10.184258789062499,0.0,0.0,0.0,359.09628956867925,0.5032182743740244,183.06350273064515
2026-09-28 19:01:05.774537984,-0.067033203125,-0.12688427734375,10.18665283203125,0.0,0.0,-0.0010652644360316954,359.0962757325977,0.5026061976781847,183.06272303052233
2026-09-28 19:01:05.774537984,-0.05266894531249999,-0.15321875,10.122013671875,0.0,0.0,0.0,359.09604422148476,0.5026326270885435,183.06284976135575
2026-09-28 19:01:05.774537984,-0.047880859374999994,-0.17715917968749997,10.150742187499999,0.0,0.0,0.0,359.09628605022806,0.501707393406304,183.06298959961381
2026-09-28 19:01:05.774537984,-0.07182128906249999,-0.16997705078124997,10.117225585937499,0.0,0.0,0.0,359.09632747567275,0.5015470730881455,183.0628129358161
2026-09-28 19:01:05.789952768,-0.07182128906249999,-0.1484306640625,10.157924316406248,0.0,0.0,0.0,359.09640176025397,0.501482872552734,183.06293695067245
2026-09-28 19:01:05.789952768,-0.05266894531249999,-0.15321875,10.13158984375,0.0,0.0,0.0,359.0961790861067,0.5012953754122161,183.06276334723105
2026-09-28 19:01:05.805644800,-0.0622451171875,-0.16040087890625,10.11004345703125,0.0,0.0,0.0,359.0956935396185,0.5012401989122705,183.06258270868565
2026-09-28 19:01:05.821337344,-0.0813974609375,-0.15082470703124998,10.14356005859375,0.0,0.0,0.0,359.09545971612994,0.5012245069366569,183.063014575334
2026-09-28 19:01:05.821337344,-0.1292783203125,-0.162794921875,10.160318359375,0.0,0.0,0.0,359.09585337305805,0.5014652392367086,183.0631413906084
2026-09-28 19:01:05.836829696,-0.09815576171875,-0.14603662109374999,10.14356005859375,0.0,-0.0021305288720633907,0.0,359.09590037934373,0.500996618277456,183.06297440760778
2026-09-28 19:01:05.854180352,-0.08857958984374999,-0.17715917968749997,10.138771972656249,0.0,0.0,0.0,359.095243573045,0.5009605827184781,183.06310476851925
2026-09-28 19:01:05.859821312,-0.07421533203125,-0.15561279296875,10.1746826171875,-0.0010652644360316954,0.0,0.0,359.0946086058622,0.5015763152053339,183.0635309035879
2026-09-28 19:01:05.868448256,-0.06942724609374999,-0.1292783203125,10.145954101562499,0.0,0.0,0.0,359.0944680959591,0.5018000593344049,183.06335049366083
2026-09-28 19:01:05.868448256,-0.08618554687499999,-0.13646044921875,10.18186474609375,0.0,0.0,0.0,359.0953137284249,0.5010724228103964,183.06349302635473
2026-09-28 19:01:05.884180736,-0.07182128906249999,-0.15561279296875,10.145954101562499,0.0,0.0,-0.0010652644360316954,359.0955438647753,0.5013301413323817,183.06300812369614
2026-09-28 19:01:05.899739136,-0.05745703125,-0.14364257812499998,10.157924316406248,0.0,0.0,0.0,359.0961461281622,0.5010496627719165,183.06283376718704
2026-09-28 19:01:05.899739136,-0.08857958984374999,-0.16040087890625,10.138771972656249,0.0,0.0,0.0,359.09656013308484,0.5009557317106139,183.0626603805095
2026-09-28 19:01:05.938914304,-0.055062988281249996,-0.17715917968749997,10.14356005859375,0.0,0.0,0.0,359.09644109726025,0.5009357215619691,183.0627901845754
2026-09-28 19:01:05.938914304,-0.067033203125,-0.13646044921875,10.124407714843748,0.0,0.0,0.0,359.096565178935,0.5005165211383817,183.06291951128395
2026-09-28 19:01:05.962703872,-0.05266894531249999,-0.15800683593749998,10.122013671875,0.0,-0.0021305288720633907,0.0,359.09672840276846,0.49955340846969637,183.06306614472902
2026-09-28 19:01:05.994073344,-0.0909736328125,-0.1484306640625,10.167500488281249,0.0,-0.0010652644360316954,0.0,359.09646339140045,0.49880702148554334,183.0632069673826
2026-09-28 19:01:05.997609216,-0.08857958984374999,-0.296861328125,10.524212890625,0.0,0.0,0.0,359.0968541149951,0.4987213837695002,183.06333854219014
2026-09-28 19:01:06.010126080,-9.5043505859375,0.9767695312499999,33.794310546874996,6.175337935675738,-1.3571468915043798,1.9494339179380025,1.047596012377279,0.07531392172649398,183.64469001841564
2026-09-28 19:01:06.010126080,3.5407895507812497,-1.09407763671875,-6.138326171875,8.644620898397207,-2.181661564992912,3.3715619400403156,6.518435961161385,358.60393309350275,185.56368440788378
2026-09-28 19:01:06.010126080,0.47162646484375,-2.5975366210937496,-26.839615722656248,2.1656825984524364,2.716424311880823,2.282861686415923,7.840134951072316,359.021431130051,187.11254452115466
