Timestamp,ax,ay,az,gx,gy,gz,roll,pitch,yaw
2026-09-28 19:09:11.665227520,-0.0335166015625,-0.22025195312499998,10.11483154296875,0.0,-0.0010652644360316954,0.0,358.78842795076906,0.2878502075820488,54.67403450992902
2026-09-28 19:09:11.671186432,-0.011970214843749999,-0.21306982421874998,10.239321777343749,0.0,0.0,0.0,358.7885348014849,0.28823820112640075,54.67415769545953
2026-09-28 19:09:11.671186432,-0.05027490234375,-0.24419238281249997,10.17707666015625,0.0,0.0010652644360316954,0.0,358.78833427113017,0.2885367483128078,54.67397592823657
2026-09-28 19:09:11.671186432,-0.00239404296875,-0.23940429687499998,10.14834814453125,0.0,0.0,0.0,358.7884899006257,0.28856614921194457,54.67349410713288
2026-09-28 19:09:11.671186432,-0.04069873046875,-0.19870556640624998,10.15313623046875,-0.0021305288720633907,0.0,0.0,358.7872103097835,0.2881194584270791,54.67301938855578
2026-09-28 19:09:11.671186432,-0.05027490234375,-0.22025195312499998,10.196229003906248,0.0,0.0,0.0,358.7872054265305,0.28832676351020464,54.6734487110071
2026-09-28 19:09:11.671186432,-0.0143642578125,-0.19870556640624998,10.1746826171875,0.0,0.0,0.0,358.7867556528184,0.2882568416197365,54.673273576990006
2026-09-28 19:09:11.671186432,-0.009576171875,-0.229828125,10.18665283203125,0.0,0.0,0.0,358.7862851630553,0.2880869977391364,54.67340342358182
2026-09-28 19:09:11.671186432,-0.0335166015625,-0.258556640625,10.162712402343749,0.0,0.0,0.0,358.7861896311129,0.2882241307352248,54.67292196899744
2026-09-28 19:09:11.681192704,-0.05266894531249999,-0.23222216796874998,10.162712402343749,0.0,-0.0010652644360316954,0.0,358.78611242859915,0.2873523050701025,54.672459947915115
2026-09-28 19:09:11.681192704,-0.07900341796874999,-0.23940429687499998,10.11004345703125,-0.0010652644360316954,-0.0010652644360316954,0.0,358.7854653936216,0.2879530489075929,54.67258243362238
2026-09-28 19:09:11.681192704,-0.043092773437499995,-0.22025195312499998,10.138771972656249,0.0,0.0021305288720633907,0.0,358.78510236039125,0.2895363323131916,54.67268532219678
2026-09-28 19:09:11.681192704,-0.047880859374999994,-0.27052685546875,10.234533691406249,0.0,0.0,0.0,358.78418729365245,0.2899796260981179,54.67311159512371
2026-09-28 19:09:11.696825344,-0.04548681640625,-0.28010302734375,10.162712402343749,-0.0010652644360316954,0.0,0.0010652644360316954,358.78341051018754,0.2903513270472323,54.67353852088165
2026-09-28 19:09:11.696825344,-0.047880859374999994,-0.25616259765625,10.095679199218749,0.0,-0.0010652644360316954,0.0010652644360316954,358.78261371892523,0.2901309911682536,54.67397677072074
2026-09-28 19:09:11.696825344,-0.0335166015625,-0.201099609375,10.1746826171875,0.0,-0.0021305288720633907,0.0,358.7818295443609,0.2893573396612005,54.673819462725106
2026-09-28 19:09:11.696825344,-0.04548681640625,-0.18912939453125,10.167500488281249,0.0,0.0,0.0,358.7818941818692,0.2893781744432151,54.673643780310094
2026-09-28 19:09:11.696825344,-0.04069873046875,-0.20828173828125,10.179470703124998,0.0,0.0,0.0,358.7820050300151,0.289483649626173,54.673773433323525
2026-09-28 19:09:11.712450560,0.0,-0.21067578124999997,10.162712402343749,0.0,0.0,0.0010652644360316954,358.7824413369012,0.2894847424271657,54.67451353561143
2026-09-28 19:09:11.743700480,-0.05745703125,-0.22025195312499998,10.138771972656249,0.0,-0.0010652644360316954,0.0,358.78229489561625,0.2885771765005224,54.67435148144711
2026-09-28 19:09:11.743700480,-0.028728515625,-0.21785791015624997,10.22495751953125,0.0,0.0,0.0,358.7830447889456,0.2884673003428379,54.67418267687813
2026-09-28 19:09:11.743700480,-0.011970214843749999,-0.27052685546875,10.157924316406248,0.0,0.0,0.0,358.78275809479624,0.2889720470229284,54.67429885204271
2026-09-28 19:09:11.743700480,0.00239404296875,-0.24179833984375,10.117225585937499,0.0,-0.0010652644360316954,0.0,358.78217414893396,0.28856204975722155,54.67382293190758
2026-09-28 19:09:11.759324672,-0.043092773437499995,-0.19870556640624998,10.1268017578125,0.0,0.0,0.0,358.78204337168324,0.28851450442017224,54.67333489592957
2026-09-28 19:09:11.759324672,-0.05027490234375,-0.24898046875,10.20819921875,0.0,0.0,0.0,358.78234141897923,0.2885648192297927,54.673770649219676
2026-09-28 19:09:11.759324672,-0.05027490234375,-0.23940429687499998,10.172288574218749,-0.0010652644360316954,0.0,0.0010652644360316954,358.7812465258721,0.28884355503611714,54.67389889347219
2026-09-28 19:09:11.759324672,0.0,-0.23701025390624997,10.162712402343749,-0.0010652644360316954,0.0,0.0,358.7810188490833,0.2890314072442608,54.67402844247932
2026-09-28 19:09:11.774949632,-0.035910644531249994,-0.201099609375,10.141166015624998,0.0,0.0,0.0010652644360316954,358.78091787568053,0.2882840963010941,54.674475189519
2026-09-28 19:09:11.774949632,-0.01675830078125,-0.23940429687499998,10.179470703124998,0.0,0.0,0.0,358.7811971313486,0.28861882497460173,54.67459283323013
2026-09-28 19:09:11.774949632,-0.05027490234375,-0.22025195312499998,10.184258789062499,0.0,0.0,0.0,358.78105546594134,0.2883089350356493,54.67442274398467
2026-09-28 19:09:11.790575104,-0.035910644531249994,-0.23940429687499998,10.17707666015625,0.0,0.0,0.0,358.7810615272473,0.2881643301023781,54.674558570426385
2026-09-28 19:09:11.790575104,-0.05027490234375,-0.23701025390624997,10.14834814453125,0.0,0.0,0.0,358.7807336541126,0.28790129468280024,54.67408390423092
2026-09-28 19:09:11.790575104,-0.028728515625,-0.23461621093749999,10.196229003906248,0.0,0.0,0.0,358.7804719895732,0.2880501301814486,54.674213453853845
2026-09-28 19:09:11.790575104,-0.023940429687499997,-0.23461621093749999,10.172288574218749,0.0010652644360316954,0.0,0.0,358.780608948753,0.28785376462445506,54.67373966018629
2026-09-28 19:09:11.790575104,-0.026334472656249996,-0.24419238281249997,10.11961962890625,-0.0010652644360316954,-0.0010652644360316954,0.0,358.78028652411524,0.2878119388087087,54.67356358212305
2026-09-28 19:09:11.806200064,-0.047880859374999994,-0.23701025390624997,10.155530273437499,0.0,0.0,0.0,358.7805699939347,0.2875526774501928,54.67308889402596
2026-09-28 19:09:11.806200064,-0.067033203125,-0.2154638671875,10.21538134765625,0.0,0.0,0.0,358.7804393761518,0.2876429636286795,54.672912297731706
2026-09-28 19:09:11.806200064,-0.028728515625,-0.229828125,10.16989453125,0.0,0.0,0.0,358.78040008113715,0.28712708891232747,54.67305419876321
2026-09-28 19:09:11.806200064,-0.059851074218749994,-0.22743408203124998,10.150742187499999,0.0,-0.0010652644360316954,-0.0010652644360316954,358.7803195590853,0.2867349750966246,54.67257934391891
2026-09-28 19:09:11.821824256,-0.01675830078125,-0.26095068359374995,10.239321777343749,-0.0010652644360316954,-0.0010652644360316954,0.0,358.77964050927505,0.2859327715070946,54.67211740878824
2026-09-28 19:09:11.821824256,0.011970214843749999,-0.24179833984375,10.124407714843748,0.0,0.0,0.0010652644360316954,358.7794684597304,0.2856664170145427,54.672557415887596
2026-09-28 19:09:11.821824256,-0.07421533203125,-0.22025195312499998,10.1651064453125,0.0,0.0010652644360316954,0.0021305288720633907,358.77948731295675,0.2858080328706812,54.67329035282533
2026-09-28 19:09:11.821824256,-0.01915234375,-0.21306982421874998,10.141166015624998,0.0,0.0,0.0010652644360316954,358.7796197864274,0.28647237604886316,54.67371880800583
2026-09-28 19:09:11.821824256,-0.05027490234375,-0.21785791015624997,10.162712402343749,0.0,0.0,-0.0010652644360316954,358.779987449347,0.28648665871082574,54.67293299961402
2026-09-28 19:09:11.821824256,-0.035910644531249994,-0.24179833984375,10.18665283203125,0.0,0.0,0.0,358.78078453151636,0.28667823528266767,54.67245292285315
2026-09-28 19:09:11.821824256,-0.01915234375,-0.2154638671875,10.157924316406248,-0.0010652644360316954,-0.0010652644360316954,0.0,358.78025465715126,0.28613446982037744,54.672282351811155
2026-09-28 19:09:11.821824256,-0.06463916015625,-0.2681328125,10.234533691406249,0.0,0.0,0.0,358.78057349951564,0.2854930469857232,54.672424519279
2026-09-28 19:09:11.837450752,-0.043092773437499995,-0.2154638671875,10.179470703124998,0.0,0.0,0.0,358.7809901521235,0.2856028073578495,54.672559183283035
2026-09-28 19:09:11.837450752,-0.067033203125,-0.2154638671875,10.189046874999999,0.0,0.0,0.0,358.7812872036189,0.28529836505246864,54.672389689159274
2026-09-28 19:09:11.837450752,-0.043092773437499995,-0.24179833984375,10.22016943359375,0.0,0.0,0.0,358.781492109718,0.2850601758541745,54.6722197530867
2026-09-28 19:09:11.837450752,-0.023940429687499997,-0.21785791015624997,10.239321777343749,0.0,0.0,0.0,358.7817836008279,0.2851460257300785,54.672348791885355
2026-09-28 19:09:11.837450752,0.00239404296875,-0.20349365234374997,10.13158984375,0.0,-0.0010652644360316954,0.0,358.78176764243864,0.2844699810915659,54.67279593551364
2026-09-28 19:09:11.837450752,-0.0383046875,-0.229828125,10.112437499999999,0.0,0.0,0.0,358.7816740492213,0.2838147206305197,54.67262757223716
2026-09-28 19:09:11.837450752,-0.076609375,-0.26573876953125,10.2034111328125,0.0,0.0,0.0,358.78161112760154,0.2837157120767376,54.67245782328465
2026-09-28 19:09:11.837450752,-0.059851074218749994,-0.25137451171874997,10.21059326171875,0.0,0.0,0.0,358.7810889628205,0.28471929579643124,54.672572937578664
2026-09-28 19:09:11.837450752,-0.067033203125,-0.22264599609375,10.167500488281249,0.0,0.0,0.0,358.78127950917616,0.2844958574010518,54.67240285735566
2026-09-28 19:09:11.837450752,-0.035910644531249994,-0.25137451171874997,10.2034111328125,0.0,0.0,0.0,358.7815526611692,0.2844804914450386,54.67253831894638
2026-09-28 19:09:11.837450752,-0.05745703125,-0.22025195312499998,10.1938349609375,0.0,0.0,0.0,358.7810956305893,0.2853506880414537,54.6726536115801
2026-09-28 19:09:11.837450752,-0.028728515625,-0.1963115234375,10.18186474609375,0.0,-0.0010652644360316954,0.0010652644360316954,358.7808804145666,0.2855817143312461,54.67278331101948
2026-09-28 19:09:11.841029120,-0.05027490234375,-0.23701025390624997,10.14356005859375,-0.0010652644360316954,0.0,0.0,358.78033060208435,0.2856014219067458,54.672302651123715
2026-09-28 19:09:11.841370624,-0.06942724609374999,-0.25616259765625,10.14834814453125,0.0,0.0,0.0,358.7795828935791,0.2854325442018573,54.6721324649232
2026-09-28 19:09:11.841370624,-0.04069873046875,-0.25137451171874997,10.160318359375,0.0,-0.0010652644360316954,0.0,358.779395713005,0.2851368046879217,54.672273739721184
2026-09-28 19:09:11.841370624,-0.011970214843749999,-0.22025195312499998,10.16989453125,0.0,-0.0010652644360316954,0.0010652644360316954,358.7794484210576,0.28463660769908383,54.67272124455739
2026-09-28 19:09:11.841370624,-0.026334472656249996,-0.20828173828125,10.083708984374999,0.0,0.0,0.0,358.7795759135025,0.2839898631603927,54.67316919114747
2026-09-28 19:09:11.861503488,-0.05027490234375,-0.1963115234375,10.155530273437499,0.0,-0.0010652644360316954,0.0,358.77987628924785,0.2833138905266879,54.6733114400093
2026-09-28 19:09:11.869307648,-0.026334472656249996,-0.19870556640624998,10.1746826171875,0.0,0.0,0.0,358.77979750543284,0.2834526157933052,54.67313674545094
2026-09-28 19:09:11.869307648,-0.00718212890625,-0.22743408203124998,10.217775390624999,0.0,0.0,0.0,358.7800454313263,0.28316517261441754,54.672968626566934
2026-09-28 19:09:11.886819584,-0.009576171875,-0.20349365234374997,10.18186474609375,0.0,0.0,0.0,358.7803431858898,0.28276004711989333,54.6727991952726
2026-09-28 19:09:11.892569600,-0.055062988281249996,-0.24179833984375,10.14834814453125,0.0,-0.0010652644360316954,0.0,358.7802587611738,0.28194381736431307,54.672637343724695
2026-09-28 19:09:11.902630912,-0.05027490234375,-0.20588769531249998,10.217775390624999,0.0,-0.0010652644360316954,0.0,358.77998020464685,0.28160125192127,54.67277957616398
2026-09-28 19:09:11.902630912,-0.04069873046875,-0.22264599609375,10.11483154296875,0.0010652644360316954,0.0010652644360316954,0.0010652644360316954,358.780565174615,0.28186657742278437,54.673520340183835
2026-09-28 19:09:11.919193856,-0.05027490234375,-0.23701025390624997,10.157924316406248,0.0,0.0,0.0010652644360316954,358.78124297250906,0.2815510124330761,54.674266621909936
2026-09-28 19:09:11.933235200,-0.04069873046875,-0.24658642578124998,10.21059326171875,0.0,0.0,0.0,358.7811371470456,0.2812227479879172,54.67440170089811
2026-09-28 19:09:11.933235200,-0.05745703125,-0.23940429687499998,10.172288574218749,0.0,0.0,0.0,358.7801022422914,0.2815552229598055,54.67452380513687
2026-09-28 19:09:11.948868864,-0.05745703125,-0.22504003906249997,10.16989453125,0.0,0.0,0.0010652644360316954,358.77995034801717,0.2810533966112727,54.67527544463141
2026-09-28 19:09:11.948868864,-0.0143642578125,-0.2537685546875,10.1746826171875,-0.0021305288720633907,-0.0010652644360316954,0.0,358.77926389411425,0.2804735674793446,54.675417302086146
2026-09-28 19:09:11.964494592,-0.0335166015625,-0.2154638671875,10.179470703124998,0.0,0.0,0.0,358.778914533472,0.2808486502733225,54.674929581820784
2026-09-28 19:09:11.980120832,-0.04069873046875,-0.22025195312499998,10.1938349609375,-0.0010652644360316954,-0.0010652644360316954,0.0,358.778344408837,0.2809634369263235,54.6753641045911
2026-09-28 19:09:11.980120832,-0.00239404296875,-0.19391748046875,10.124407714843748,0.0,0.0,0.0010652644360316954,358.77819352349786,0.28131816199703236,54.6757991923845
2026-09-28 19:09:11.995773696,-0.0335166015625,-0.21785791015624997,10.244109863281249,0.0,0.0,0.0,358.7784163782228,0.28060801372825805,54.67594239133738
2026-09-28 19:09:12.019436800,-0.021546386718749998,-0.26095068359374995,10.205805175781249,0.0,0.0,0.0010652644360316954,358.77883380331775,0.28042410818617264,54.67607872547589
2026-09-28 19:09:12.036067328,-0.01915234375,-0.23222216796874998,10.133983886718749,0.0,0.0,0.0,358.7782069877937,0.2804216606090862,54.67590116699576
2026-09-28 19:09:12.036067328,-0.043092773437499995,-0.23222216796874998,10.16989453125,0.0,0.0,0.0,358.7782648320633,0.27969839556755055,54.67604207086581
2026-09-28 19:09:12.054097664,-0.01915234375,-0.21067578124999997,10.11004345703125,0.0,-0.0010652644360316954,0.0,358.777919179911,0.27952013036104556,54.67556735402264
2026-09-28 19:09:12.054097664,-0.00718212890625,-0.24419238281249997,10.22016943359375,0.0,0.0,0.0,358.77830062409254,0.2797744228821913,54.675385281693124
2026-09-28 19:09:12.102627328,-0.009576171875,-0.25616259765625,10.150742187499999,0.0010652644360316954,0.0010652644360316954,0.0,358.7792148634276,0.28027677709202914,54.675196311009316
2026-09-28 19:09:12.115160576,-0.0813974609375,-0.22504003906249997,10.138771972656249,0.0,0.0,0.0,358.77937906274275,0.2798512925183875,54.67502621297916
2026-09-28 19:09:12.115160576,-0.0143642578125,-0.22264599609375,10.198623046875,0.0,0.0010652644360316954,0.0,358.77968493224154,0.28014281157062937,54.67485035315363
2026-09-28 19:09:12.115160576,-0.04069873046875,-0.22743408203124998,10.167500488281249,0.0,0.0,0.0,358.77902685325586,0.2800220541790471,54.67468071098838
2026-09-28 19:09:12.130812160,-0.043092773437499995,-0.25616259765625,10.172288574218749,0.0,0.0,0.0,358.77827596011576,0.28044519414576297,54.67449763010331
2026-09-28 19:09:12.130812160,-0.07182128906249999,-0.19152343749999998,10.1651064453125,0.0,0.0,0.0,358.7788917805375,0.2808807217691392,54.67431527385082
2026-09-28 19:09:12.130812160,-0.0909736328125,-0.26095068359374995,10.172288574218749,0.0,0.0,0.0010652644360316954,358.77920439037376,0.2816193041964444,54.6747446369522
2026-09-28 19:09:12.130812160,-0.023940429687499997,-0.20349365234374997,10.160318359375,0.0,-0.0010652644360316954,0.0,358.7791124310181,0.28148251769562316,54.674581240455915
2026-09-28 19:09:12.130812160,-0.067033203125,-0.20349365234374997,10.17707666015625,0.0,0.0,0.0,358.7788013000626,0.28102124715550447,54.67410673809707
2026-09-28 19:09:12.146432512,-0.05266894531249999,-0.229828125,10.184258789062499,0.0,0.0,0.0,358.7792703640557,0.2821710661452143,54.673912117624845
2026-09-28 19:09:12.146432512,-0.035910644531249994,-0.22743408203124998,10.198623046875,0.0,0.0,0.0010652644360316954,358.77891275310475,0.28240269065333773,54.674346220261505
2026-09-28 19:09:12.162061056,-0.01675830078125,-0.2537685546875,10.236927734375,0.0,0.0,0.0,358.7782142214404,0.28257336301350916,54.67447496262905
2026-09-28 19:09:12.188185344,-0.01915234375,-0.229828125,10.198623046875,0.0,0.0,0.0,358.77819176798045,0.28214792348831164,54.6746090323311
2026-09-28 19:09:12.190530816,-0.023940429687499997,-0.21067578124999997,10.160318359375,0.0,0.0,0.0,358.77820622556027,0.28240955892476427,54.67442665921045
2026-09-28 19:09:12.233450240,-0.055062988281249996,-0.25616259765625,10.19144091796875,0.0,0.0,0.0,358.7782487159565,0.28189446280075797,54.67395884932113
2026-09-28 19:09:12.237506304,-0.035910644531249994,-0.229828125,10.1746826171875,0.0,0.0,-0.0010652644360316954,358.7778963654713,0.28164466242098635,54.6734824827627
2026-09-28 19:09:12.241526528,-0.047880859374999994,-0.24179833984375,10.21538134765625,-0.0010652644360316954,0.0,0.0,358.77735448116204,0.2820523819047591,54.673300465288094
2026-09-28 19:09:12.241526528,-0.047880859374999994,-0.23940429687499998,10.196229003906248,0.0,0.0,0.0,358.7775695164738,0.28264852000730634,54.67342264805476
2026-09-28 19:09:12.241526528,-0.059851074218749994,-0.2537685546875,10.201017089843749,0.0,0.0,0.0,358.7773999143565,0.2825541087889446,54.67355739191133
2026-09-28 19:09:12.249564416,-0.00718212890625,-0.23940429687499998,10.141166015624998,0.0,0.0,0.0,358.7768403821178,0.28304441725963225,54.67306861235083
2026-09-28 19:09:12.257539584,-0.021546386718749998,-0.21067578124999997,10.205805175781249,0.0,0.0,0.0,358.77591841377875,0.2827204215162996,54.67289917108414
2026-09-28 19:09:12.273817088,-0.0383046875,-0.24179833984375,10.172288574218749,0.0,0.0,0.0,358.7758035089765,0.28225582825597967,54.673035839017004
2026-09-28 19:09:12.273817088,-0.059851074218749994,-0.24179833984375,10.18665283203125,-0.0010652644360316954,0.0,0.0,358.7751499922123,0.2819063445846219,54.672866203040584
2026-09-28 19:09:12.289848832,-0.07421533203125,-0.21785791015624997,10.1363779296875,0.0,0.0,0.0,358.77519265038893,0.28205331901935277,54.672995528568244
2026-09-28 19:09:12.289848832,-0.06942724609374999,-0.2537685546875,10.1651064453125,0.0,0.0,0.0010652644360316954,358.77494276500505,0.28235926322142996,54.673118615328626
2026-09-28 19:09:12.305757184,-0.06942724609374999,-0.23461621093749999,10.1746826171875,0.0,0.0,0.0,358.77517490489805,0.28273938867163323,54.672935763814195
2026-09-28 19:09:12.321382656,-0.04548681640625,-0.26334472656249996,10.13158984375,0.0,0.0,0.0,358.7755088322106,0.2826389847018693,54.67276652863436
2026-09-28 19:09:12.321382656,-0.026334472656249996,-0.23701025390624997,10.167500488281249,0.0,0.0,0.0,358.775049289919,0.28268725207038414,54.67258980932267
2026-09-28 19:09:12.355097088,-0.06942724609374999,-0.22264599609375,10.1746826171875,-0.0010652644360316954,0.0,0.0,358.7746686762675,0.2823954499649852,54.672725262612914
2026-09-28 19:09:12.355097088,-0.05745703125,-0.22264599609375,10.157924316406248,0.0,0.0,0.0,358.7749677317709,0.2829247331899397,54.67284791000264
2026-09-28 19:09:12.355097088,-0.009576171875,-0.27052685546875,10.21059326171875,0.0,0.0,0.0010652644360316954,358.7751991208518,0.2824792430522548,54.67329641057532
2026-09-28 19:09:12.369126912,-0.0383046875,-0.18673535156249998,10.227351562499999,-0.0010652644360316954,0.0,0.0,358.77474301019845,0.2822933063579809,54.67342478622338
2026-09-28 19:09:12.384640256,-0.028728515625,-0.23940429687499998,10.15313623046875,0.0,0.0,0.0,358.77506727235493,0.28249859831331803,54.673243916023296
2026-09-28 19:09:12.404005376,-0.04548681640625,-0.24898046875,10.167500488281249,0.0,0.0,0.0,358.77475228512236,0.2826909701926083,54.6730614136217
2026-09-28 19:09:12.404005376,0.009576171875,-0.24179833984375,10.138771972656249,-0.0010652644360316954,-0.0021305288720633907,0.0010652644360316954,358.7737072966361,0.2822600131156751,54.673508040605725
2026-09-28 19:09:12.436408064,-0.05027490234375,-0.2537685546875,10.25847412109375,0.0,-0.0021305288720633907,0.0,358.7733766261376,0.28126770190258765,54.6736565799711
2026-09-28 19:09:12.452469504,-0.0383046875,-0.20349365234374997,10.196229003906248,-0.0010652644360316954,0.0,0.0,358.7724915569671,0.28136018666244916,54.67379083222238
2026-09-28 19:09:12.453049856,-0.043092773437499995,-0.24658642578124998,10.14356005859375,0.0,-0.0010652644360316954,0.0,358.77208612119375,0.2814085756316685,54.67362235532166
2026-09-28 19:09:12.453049856,-0.04069873046875,-0.23461621093749999,10.11961962890625,0.0,0.0,0.0,358.77173827250823,0.28163912881366643,54.67374462940736
2026-09-28 19:09:12.453049856,-0.035910644531249994,-0.22025195312499998,10.16989453125,-0.0010652644360316954,-0.0010652644360316954,0.0,358.77084435569816,0.281714199986909,54.67417896001979
2026-09-28 19:09:12.466113536,-0.021546386718749998,-0.2154638671875,10.2034111328125,0.0,0.0,0.0,358.7707745800977,0.28179568685304085,54.6743091502883
2026-09-28 19:09:12.469759488,-0.01915234375,-0.21306982421874998,10.141166015624998,-0.0010652644360316954,-0.0010652644360316954,0.0,358.7702514636832,0.28145346124043863,54.674445210347415
2026-09-28 19:09:12.481764096,-0.011970214843749999,-0.258556640625,10.2034111328125,-0.0010652644360316954,-0.0010652644360316954,0.0010652644360316954,358.76943059685385,0.2812234192930519,54.67488650881302
2026-09-28 19:09:12.486198272,-0.059851074218749994,-0.23222216796874998,10.16989453125,0.0,-0.0010652644360316954,0.0,358.76916317447115,0.2808598185208491,54.675325984740994
2026-09-28 19:09:12.504861184,-0.05027490234375,-0.22025195312499998,10.212987304687498,0.0010652644360316954,0.0,0.0,358.7698425339927,0.2807300935656278,54.675461927840146
2026-09-28 19:09:12.512105216,-0.01675830078125,-0.23222216796874998,10.1651064453125,0.0,0.0,0.0,358.76926195605677,0.2809648619950066,54.67527959583374
2026-09-28 19:09:12.521060608,-0.021546386718749998,-0.24658642578124998,10.198623046875,0.0,0.0,0.0,358.76930445766794,0.28068302692625063,54.675110437073016
2026-09-28 19:09:12.529061376,-0.05027490234375,-0.25137451171874997,10.13158984375,0.0,0.0,0.0,358.7692167766253,0.2805738931945446,54.67554431000829
2026-09-28 19:09:12.539281152,-0.043092773437499995,-0.22743408203124998,10.145954101562499,0.0,0.0,0.0,358.76864347754963,0.28125476438334496,54.67566553298243
2026-09-28 19:09:12.552479488,-0.05027490234375,-0.24898046875,10.201017089843749,0.0,0.0010652644360316954,0.0,358.768832186089,0.2818670854412909,54.675780846779546
2026-09-28 19:09:12.563932416,-0.03112255859375,-0.23940429687499998,10.145954101562499,0.0,0.0,0.0,358.7688595378828,0.2820604845313165,54.67560498989432
2026-09-28 19:09:12.572395008,-0.03112255859375,-0.22504003906249997,10.17707666015625,0.0,-0.0021305288720633907,0.0,358.7687307015606,0.28160622182235223,54.67544157862547
2026-09-28 19:09:12.585771008,0.0,-0.23701025390624997,10.145954101562499,0.0,0.0,0.0010652644360316954,358.76890465278143,0.2814956280419474,54.6758818473278
2026-09-28 19:09:12.587397376,0.00718212890625,-0.21785791015624997,10.16989453125,0.0,-0.0010652644360316954,-0.0010652644360316954,358.7687517971684,0.281062069682295,54.67540812356009
2026-09-28 19:09:12.609195008,-0.026334472656249996,-0.20828173828125,10.155530273437499,0.0,0.0,0.0,358.7689082568531,0.2807219838659855,54.67554444715081
2026-09-28 19:09:12.609195008,-0.0622451171875,-0.21785791015624997,10.160318359375,0.0,0.0,0.0,358.76873069886284,0.2808195439035955,54.67506407077787
2026-09-28 19:09:12.621041920,-0.021546386718749998,-0.22743408203124998,10.157924316406248,0.0,-0.0010652644360316954,0.0,358.76882504862766,0.28110698698819153,54.674888648845936
2026-09-28 19:09:12.621041920,-0.035910644531249994,-0.24179833984375,10.189046874999999,-0.0010652644360316954,-0.0010652644360316954,0.0,358.7683068877955,0.2807394968632689,54.67502485780481
2026-09-28 19:09:12.640802048,-0.009576171875,-0.1963115234375,10.212987304687498,0.0,0.0,0.0,358.7683533181354,0.280662982207832,54.67515423869291
2026-09-28 19:09:12.653058816,-0.04548681640625,-0.21785791015624997,10.150742187499999,0.0,-0.0010652644360316954,0.0,358.76888465517146,0.2795864985327511,54.67499901458078
2026-09-28 19:09:12.653058816,-0.0335166015625,-0.21306982421874998,10.184258789062499,0.0,0.0,0.0,358.76888011554087,0.2792756950114439,54.67513474936832
2026-09-28 19:09:12.669669376,-0.03112255859375,-0.22504003906249997,10.162712402343749,0.0,0.0,0.0,358.7688933192984,0.2789780657341843,54.67527052643638
2026-09-28 19:09:12.680293888,-0.1005498046875,-0.23461621093749999,10.1651064453125,0.0,0.0,0.0,358.76906426919703,0.2792971997201944,54.67508878141822
2026-09-28 19:09:12.686200320,-0.05266894531249999,-0.229828125,10.150742187499999,0.0,0.0,0.0,358.76951033466946,0.27921757002813824,54.67492511295321
2026-09-28 19:09:12.702742784,-0.07182128906249999,-0.22743408203124998,10.222563476562499,0.0,0.0,0.0,358.76953818083285,0.279064472630827,54.675060806991944
2026-09-28 19:09:12.712251392,-0.06463916015625,-0.21306982421874998,10.201017089843749,-0.0010652644360316954,-0.0010652644360316954,0.0010652644360316954,358.76957133614303,0.27925512340533126,54.67580693938482
2026-09-28 19:09:12.725753600,-0.00718212890625,-0.201099609375,10.196229003906248,0.0,0.0,0.0,358.76989048981034,0.2792213867123551,54.67594264395747
2026-09-28 19:09:12.740086528,-0.028728515625,-0.22743408203124998,10.179470703124998,-0.0010652644360316954,-0.0010652644360316954,0.0,358.7698391795373,0.27871760718635946,54.67638464152394
2026-09-28 19:09:12.749555200,-0.00718212890625,-0.23222216796874998,10.14356005859375,0.0,0.0,0.0,358.76927880881965,0.27907722049982864,54.67620241404933
2026-09-28 19:09:12.753981184,-0.04548681640625,-0.2154638671875,10.13158984375,0.0,0.0,0.0,358.76937547186054,0.2787883159438072,54.67602548299196
2026-09-28 19:09:12.807318272,-0.011970214843749999,-0.24658642578124998,10.205805175781249,0.0,-0.0010652644360316954,0.0,358.76903577278466,0.27860566681747306,54.676466058373784
2026-09-28 19:09:12.815317248,-0.04069873046875,-0.22743408203124998,10.18665283203125,-0.0010652644360316954,0.0,0.0,358.7685122472784,0.2786056990417098,54.676290630550064
2026-09-28 19:09:12.823318528,-0.043092773437499995,-0.24179833984375,10.18665283203125,0.0,0.0,0.0,358.76881757665853,0.278938208803797,54.67611468026446
2026-09-28 19:09:12.823318528,-0.047880859374999994,-0.21785791015624997,10.18665283203125,-0.0010652644360316954,0.0,0.0,358.76826069627424,0.2790845169777282,54.675939038769826
2026-09-28 19:09:12.828318208,-0.026334472656249996,-0.23701025390624997,10.1938349609375,0.0,0.0010652644360316954,0.0,358.76855192088783,0.2797947461746407,54.67605491807146
2026-09-28 19:09:12.831324928,-0.05745703125,-0.19391748046875,10.196229003906248,0.0,0.0,0.0010652644360316954,358.76849422950374,0.27985219238837744,54.67618381698661
2026-09-28 19:09:12.839830528,-0.05266894531249999,-0.2537685546875,10.19144091796875,0.0,-0.0010652644360316954,0.0,358.769167383849,0.2790895362376919,54.67633286714582
2026-09-28 19:09:12.866506496,-0.028728515625,-0.23461621093749999,10.196229003906248,0.0,0.0,0.0,358.76918063267277,0.278957265646676,54.676163615478345
2026-09-28 19:09:12.866506496,-0.0383046875,-0.22743408203124998,10.244109863281249,0.0,0.0,0.0,358.76868013564854,0.27909597893217,54.67568167929663
2026-09-28 19:09:12.888167424,-0.0813974609375,-0.22025195312499998,10.14834814453125,0.0,0.0,0.0,358.7687736825763,0.27911297299180227,54.67520111921782
2026-09-28 19:09:12.890718976,-0.0143642578125,-0.18912939453125,10.157924316406248,0.0,0.0,0.0,358.76810413555074,0.2799289153381526,54.6747133025908
2026-09-28 19:09:12.890939648,-0.04069873046875,-0.20588769531249998,10.14356005859375,-0.0010652644360316954,0.0,0.0,358.76765634924374,0.2795588620584107,54.673934490972634
2026-09-28 19:09:12.894171648,-0.028728515625,-0.21067578124999997,10.22016943359375,0.0,-0.0010652644360316954,0.0,358.7673898451971,0.27936630797051754,54.673460173353334
2026-09-28 19:09:12.896191488,-0.043092773437499995,-0.18912939453125,10.160318359375,-0.0010652644360316954,-0.0010652644360316954,0.0,358.7672484262179,0.27881518274506534,54.67299309219893
2026-09-28 19:09:12.905250560,-0.06463916015625,-0.20349365234374997,10.145954101562499,0.0,-0.0010652644360316954,0.0010652644360316954,358.76721965824925,0.27879079379949906,54.673435166839
2026-09-28 19:09:12.924390400,-0.03112255859375,-0.24179833984375,10.18186474609375,0.0,0.0,0.0010652644360316954,358.7668332517657,0.2795882414735965,54.673862403317294
2026-09-28 19:09:12.936275200,-0.035910644531249994,-0.22264599609375,10.162712402343749,0.0,0.0,0.0,358.76676139058844,0.27978001284971377,54.674601404708135
2026-09-28 19:09:12.951832320,-0.043092773437499995,-0.2154638671875,10.129195800781249,-0.0010652644360316954,0.0,0.0,358.76629573896236,0.2800054048659569,54.674424735674464
2026-09-28 19:09:12.955720192,-0.04548681640625,-0.24179833984375,10.21538134765625,0.0,-0.0010652644360316954,0.0010652644360316954,358.76632065458074,0.2800587825029175,54.674859082669165
2026-09-28 19:09:12.955720192,-0.0813974609375,-0.229828125,10.14834814453125,0.0,0.0,0.0010652644360316954,358.7669536631295,0.2799372300709422,54.67529999700434
2026-09-28 19:09:12.955720192,-0.028728515625,-0.258556640625,10.141166015624998,0.0,0.0,0.0,358.7671845750333,0.28043905166505595,54.6757339228971
2026-09-28 19:09:12.970152704,-0.035910644531249994,-0.22504003906249997,10.15313623046875,0.0,0.0,0.0,358.7659087882948,0.2808229589207977,54.67554972105574
2026-09-28 19:09:12.987859712,-0.047880859374999994,-0.22504003906249997,10.15313623046875,0.0,-0.0010652644360316954,0.0,358.76524563893855,0.2802582531534641,54.67569173478686
2026-09-28 19:09:12.999403520,-0.05027490234375,-0.21067578124999997,10.167500488281249,0.0,0.0,0.0010652644360316954,358.76526328155995,0.281092338235062,54.67611290422661
2026-09-28 19:09:13.012933632,-0.00239404296875,-0.22504003906249997,10.145954101562499,0.0,0.0,0.0,358.76540529797853,0.2811874805602377,54.676242620642064
2026-09-28 19:09:13.016498688,-0.05027490234375,-0.22743408203124998,10.20819921875,0.0,0.0,0.0,358.76545596451666,0.2813522352025817,54.67636550822646
2026-09-28 19:09:13.020247808,-0.05745703125,-0.20588769531249998,10.13158984375,0.0,0.0,0.0,358.7655320733553,0.28151390602368104,54.67710507682953
2026-09-28 19:09:13.032274176,-0.04069873046875,-0.20828173828125,10.167500488281249,0.0,0.0,0.0,358.7655260240373,0.2817079895942301,54.67692912797815
2026-09-28 19:09:13.047907328,-0.06463916015625,-0.229828125,10.160318359375,0.0,0.0,0.0,358.765541345198,0.2820226257581563,54.67674668309612
2026-09-28 19:09:13.052630016,-0.0622451171875,-0.21785791015624997,10.201017089843749,0.0,0.0,0.0021305288720633907,358.76529035270323,0.2820231136459229,54.67810300314865
2026-09-28 19:09:13.078416384,-0.059851074218749994,-0.20828173828125,10.16989453125,-0.0010652644360316954,-0.0010652644360316954,0.0010652644360316954,358.76445237002963,0.2814409517242552,54.67885584864105
2026-09-28 19:09:13.081397248,-0.04548681640625,-0.23461621093749999,10.162712402343749,0.0,0.0,0.0,358.764606044491,0.2814898662463345,54.67868068245986
2026-09-28 19:09:13.086099200,-0.023940429687499997,-0.24658642578124998,10.157924316406248,0.0,0.0,0.0,358.7646045209931,0.28193552058918586,54.678498124469215
2026-09-28 19:09:13.087130112,-0.03112255859375,-0.2537685546875,10.2034111328125,0.0,0.0,0.0,358.7641577534327,0.2822968057073023,54.67923008657951
2026-09-28 19:09:13.097136896,-0.035910644531249994,-0.23940429687499998,10.196229003906248,0.0,0.0,0.0,358.76402774668844,0.28254115297139243,54.67905349979359
2026-09-28 19:09:13.112769280,-0.05266894531249999,-0.22264599609375,10.227351562499999,0.0,0.0,0.0010652644360316954,358.7644853958559,0.28205858747390816,54.6795015808821
2026-09-28 19:09:13.128395008,-0.05027490234375,-0.23222216796874998,10.1651064453125,0.0,0.0,0.0,358.76447366051576,0.28191978537612594,54.67994239444913
2026-09-28 19:09:13.169287680,0.011970214843749999,-0.24658642578124998,10.160318359375,0.0,-0.0010652644360316954,0.0,358.7645832578588,0.28123911820084263,54.67978671213954
2026-09-28 19:09:13.184348672,-0.0143642578125,-0.25137451171874997,10.14834814453125,0.0,0.0,0.0,358.76500166097173,0.28082627763256673,54.68021996008427
2026-09-28 19:09:13.203384832,-0.05027490234375,-0.1963115234375,10.251291992187499,0.0,0.0,0.0,358.7647936985182,0.2800953614744039,54.680056111288756
2026-09-28 19:09:13.203384832,-0.076609375,-0.27052685546875,10.15313623046875,0.0,-0.0010652644360316954,0.0,358.76502782581184,0.2800040687241153,54.68019286281983
2026-09-28 19:09:13.203384832,-0.067033203125,-0.24419238281249997,10.1746826171875,0.0,0.0,0.0,358.7646495131105,0.28032772177535714,54.68032011932625
2026-09-28 19:09:13.224465920,-0.035910644531249994,-0.23701025390624997,10.179470703124998,0.0,-0.0010652644360316954,0.0,358.7645102079257,0.28024595432285077,54.68015012179655
2026-09-28 19:09:13.224465920,-0.026334472656249996,-0.21785791015624997,10.157924316406248,0.0,0.0,0.0,358.7638915291274,0.28040403998718205,54.67997405619405
2026-09-28 19:09:13.227831808,-0.059851074218749994,-0.24658642578124998,10.14834814453125,0.0,-0.0010652644360316954,0.0,358.7637098042269,0.2802702063352204,54.679805141383994
2026-09-28 19:09:13.229080576,-0.01915234375,-0.19391748046875,10.20819921875,-0.0010652644360316954,0.0,0.0,358.76291918568165,0.28028237085853375,54.67963497527079
2026-09-28 19:09:13.229080576,-0.07182128906249999,-0.21306982421874998,10.22016943359375,0.0,0.0,0.0,358.7634634352886,0.28039302241094327,54.67976525781931
2026-09-28 19:09:13.229080576,0.0,-0.23461621093749999,10.172288574218749,-0.0010652644360316954,0.0,0.0,358.7624069122485,0.28022994380474253,54.67959660376286
2026-09-28 19:09:13.241313792,-0.05266894531249999,-0.2537685546875,10.16989453125,0.0,0.0,0.0,358.7622193071617,0.2802426854950511,54.679414547429545
2026-09-28 19:09:13.254255872,-0.0383046875,-0.23701025390624997,10.189046874999999,0.0,0.0,0.0,358.7618787670218,0.2805996987901057,54.67862826372469
2026-09-28 19:09:13.254592256,-0.05745703125,-0.201099609375,10.1746826171875,0.0,0.0,0.0010652644360316954,358.76192722512553,0.2804365123949661,54.679069292188224
2026-09-28 19:09:13.290434816,-0.01675830078125,-0.21785791015624997,10.184258789062499,0.0,0.0,0.0010652644360316954,358.7627645850632,0.2801157904414634,54.67951774450168
2026-09-28 19:09:13.310103296,-0.06463916015625,-0.258556640625,10.11961962890625,-0.0010652644360316954,0.0,0.0,358.76256708459766,0.2800343664143502,54.67934226440342
2026-09-28 19:09:13.314608896,-0.04069873046875,-0.1963115234375,10.1651064453125,0.0,-0.0010652644360316954,0.0,358.7619937883928,0.2796951183718453,54.67948475016988
2026-09-28 19:09:13.314608896,-0.047880859374999994,-0.2154638671875,10.1268017578125,0.0,0.0,0.0,358.76218456656795,0.2798745942897443,54.6790046197688
2026-09-28 19:09:13.319520768,-0.06463916015625,-0.19152343749999998,10.11004345703125,0.0,0.0,0.0,358.76279830366485,0.2795505775949389,54.679146849919
2026-09-28 19:09:13.321838336,-0.028728515625,-0.24419238281249997,10.100467285156249,0.0,0.0,0.0,358.76317032788364,0.2787242081320652,54.67929602789831
2026-09-28 19:09:13.330870272,-0.023940429687499997,-0.22504003906249997,10.25368603515625,0.0,0.0,0.0,358.7628129491282,0.27915805641687763,54.67880823002339
2026-09-28 19:09:13.347417600,-0.0143642578125,-0.23222216796874998,10.19144091796875,0.0,0.0,0.0,358.763213238143,0.2785050765313565,54.678645951338595
2026-09-28 19:09:13.355296512,-0.023940429687499997,-0.23940429687499998,10.15313623046875,0.0,0.0,0.0,358.7630399188203,0.27840092141854467,54.67846905518112
2026-09-28 19:09:13.386319872,-0.04548681640625,-0.201099609375,10.167500488281249,0.0,0.0,0.0010652644360316954,358.76295692990533,0.2786557509609349,54.67889630820083
2026-09-28 19:09:13.387348992,-0.011970214843749999,-0.21785791015624997,10.198623046875,0.0,0.0,0.0,358.7627155384547,0.27865745211865633,54.67872069560017
2026-09-28 19:09:13.406956800,-0.026334472656249996,-0.258556640625,10.162712402343749,-0.0010652644360316954,0.0,0.0,358.7621939592425,0.2783122167168057,54.678551757823975
2026-09-28 19:09:13.406956800,-0.01675830078125,-0.21785791015624997,10.22495751953125,0.0,-0.0010652644360316954,0.0,358.7617653968901,0.27769211830977997,54.67838843173667
2026-09-28 19:09:13.413619456,-0.011970214843749999,-0.2154638671875,10.18665283203125,0.0,0.0,-0.0010652644360316954,358.7618084260999,0.2776615489874492,54.67790750223395
2026-09-28 19:09:13.414757120,-0.05027490234375,-0.22504003906249997,10.20819921875,-0.0010652644360316954,-0.0010652644360316954,0.0,358.7609454541782,0.27711522847893955,54.67804999998848
2026-09-28 19:09:13.425306368,-0.0383046875,-0.21785791015624997,10.1363779296875,0.0,-0.0021305288720633907,0.0010652644360316954,358.7602116892062,0.27671355601419484,54.67819186098251
2026-09-28 19:09:13.429632000,-0.05745703125,-0.24658642578124998,10.133983886718749,0.0,0.0,0.0,358.7599993746156,0.27693138348525365,54.67801632429826
2026-09-28 19:09:13.453356288,-0.055062988281249996,-0.21785791015624997,10.2034111328125,-0.0021305288720633907,-0.0010652644360316954,0.0,358.75908116319187,0.27696978104153414,54.67754187166652
2026-09-28 19:09:13.453356288,-0.047880859374999994,-0.26095068359374995,10.198623046875,0.0,0.0,0.0,358.75938838559176,0.27713394984592243,54.67736728196086
2026-09-28 19:09:13.469941760,-0.05027490234375,-0.23461621093749999,10.11483154296875,0.0,0.0,0.0,358.75922244343275,0.27758877986277003,54.67718384933661
2026-09-28 19:09:13.469941760,-0.0047880859375,-0.23461621093749999,10.167500488281249,0.0,0.0,0.0,358.75975481611266,0.27800437165564706,54.67761104722444
2026-09-28 19:09:13.499970816,-0.07182128906249999,-0.22025195312499998,10.21538134765625,0.0,-0.0010652644360316954,0.0,358.75976101088594,0.27763556031062947,54.67744166886296
2026-09-28 19:09:13.501169664,-0.021546386718749998,-0.1963115234375,10.251291992187499,0.0,0.0,0.0,358.7596242042427,0.278213916337896,54.67695490511874
2026-09-28 19:09:13.526167808,-0.023940429687499997,-0.20828173828125,10.150742187499999,0.0,-0.0010652644360316954,0.0,358.75925503295144,0.2775313702959031,54.67709838195395
2026-09-28 19:09:13.572462592,-0.0622451171875,-0.21306982421874998,10.172288574218749,0.0,0.0,0.0010652644360316954,358.7598768174743,0.27761657143805624,54.67753412227239
2026-09-28 19:09:13.592385280,-0.043092773437499995,-0.201099609375,10.160318359375,0.0,0.0,0.0,358.7604380406878,0.27753375403414854,54.677671096682985
2026-09-28 19:09:13.599392000,-0.055062988281249996,-0.21306982421874998,10.15313623046875,0.0,0.0,0.0,358.7601551218708,0.2776115227614352,54.677191598219096
2026-09-28 19:09:13.615024384,-0.05745703125,-0.24658642578124998,10.212987304687498,-0.0010652644360316954,0.0,0.0010652644360316954,358.7596934327097,0.2777809045391997,54.67732156502363
2026-09-28 19:09:13.646273792,-0.05027490234375,-0.24419238281249997,10.172288574218749,0.0,-0.0010652644360316954,0.0,358.75899964208287,0.27729897147614785,54.67746342793254
2026-09-28 19:09:13.671615488,-0.05027490234375,-0.21785791015624997,10.184258789062499,0.0,-0.0010652644360316954,0.0,358.7590212191849,0.27689185316108383,54.677904358804106
2026-09-28 19:09:13.671615488,-0.0335166015625,-0.20828173828125,10.0884970703125,0.0,0.0,0.0010652644360316954,358.75847418375474,0.2766250170531051,54.678650708757075
2026-09-28 19:09:13.671615488,-0.00239404296875,-0.23701025390624997,10.157924316406248,0.0,0.0,0.0010652644360316954,358.75800665062883,0.2770770505454488,54.67877402962662
2026-09-28 19:09:13.703189760,-0.04548681640625,-0.20828173828125,10.18186474609375,0.0,0.0,0.0,358.7573599162786,0.27663316019798095,54.67921470570535
2026-09-28 19:09:13.706157824,-0.0622451171875,-0.21306982421874998,10.18186474609375,-0.0010652644360316954,0.0,0.0010652644360316954,358.75693720241037,0.2765182465819746,54.679656486902864
2026-09-28 19:09:13.707164416,-0.05266894531249999,-0.20588769531249998,10.14356005859375,0.0,0.0,0.0,358.7570523284679,0.2761521865534919,54.67949435230347
2026-09-28 19:09:13.707164416,-0.07182128906249999,-0.22504003906249997,10.18665283203125,0.0,0.0,0.0,358.75663439762087,0.2766627187133444,54.6793126962511
2026-09-28 19:09:13.708188416,-0.04548681640625,-0.26095068359374995,10.16989453125,0.0,0.0,0.0,358.7561363803216,0.2772096625902691,54.679740893883064
2026-09-28 19:09:13.708188416,-0.067033203125,-0.17715917968749997,10.172288574218749,0.0,0.0010652644360316954,0.0,358.7554298709992,0.27792351812852195,54.679246142531916
2026-09-28 19:09:13.709210624,-0.028728515625,-0.20588769531249998,10.155530273437499,0.0,0.0,0.0,358.75548296231705,0.2786214594210199,54.679370263872926
2026-09-28 19:09:13.711256832,-0.035910644531249994,-0.21067578124999997,10.205805175781249,0.0,0.0,0.0010652644360316954,358.7556008504375,0.279054789362153,54.68010358209035
2026-09-28 19:09:13.711256832,-0.028728515625,-0.25616259765625,10.141166015624998,0.0,0.0010652644360316954,0.0,358.7557193791953,0.27928763616873653,54.68023327176723
2026-09-28 19:09:13.712282112,-0.05266894531249999,-0.23461621093749999,10.198623046875,0.0,0.0010652644360316954,0.0,358.75608694121104,0.2797455290886592,54.67974589118712
2026-09-28 19:09:13.713584128,-0.035910644531249994,-0.23701025390624997,10.189046874999999,-0.0010652644360316954,0.0,0.0,358.7553572319751,0.280101813952201,54.67956937310627
2026-09-28 19:09:13.714809600,-0.03112255859375,-0.229828125,10.172288574218749,-0.0010652644360316954,-0.0010652644360316954,0.0,358.7547808898583,0.2797078407635052,54.67970521031962
2026-09-28 19:09:13.720325376,-0.021546386718749998,-0.22743408203124998,10.155530273437499,0.0010652644360316954,0.0,0.0,358.7553063845594,0.2798674922563849,54.67952878525523
2026-09-28 19:09:13.720325376,-0.04069873046875,-0.22504003906249997,10.189046874999999,0.0,0.0,0.0,358.75535509868456,0.2803117662424353,54.67965134635474
2026-09-28 19:09:13.737640192,-0.026334472656249996,-0.19870556640624998,10.141166015624998,0.0,-0.0010652644360316954,0.0,358.755462977428,0.2802895199918201,54.679780957127015
2026-09-28 19:09:13.752885504,-0.04069873046875,-0.21067578124999997,10.162712402343749,0.0,-0.0010652644360316954,0.0,358.755463848911,0.28004919321445104,54.68022181407321
2026-09-28 19:09:13.752885504,-0.035910644531249994,-0.229828125,10.167500488281249,0.0,0.0,0.0,358.7558186454397,0.28017453215035487,54.68035106330249
2026-09-28 19:09:13.782622464,-0.01675830078125,-0.19152343749999998,10.1938349609375,0.0,0.0,0.0,358.75607062074124,0.27978152569030984,54.68049318115667
2026-09-28 19:09:13.802755840,-0.043092773437499995,-0.24898046875,10.2034111328125,0.0,0.0,0.0,358.7561402391866,0.2796759526388739,54.67970891307311
2026-09-28 19:09:13.814272512,-0.059851074218749994,-0.25616259765625,10.172288574218749,0.0,0.0,0.0,358.75576290971554,0.279833051632233,54.680142689628184
2026-09-28 19:09:13.814272512,-0.055062988281249996,-0.21785791015624997,10.21538134765625,0.0,0.0,0.0,358.75563385250666,0.27955565764985746,54.679972645193835
2026-09-28 19:09:13.814272512,-0.026334472656249996,-0.22025195312499998,10.1746826171875,0.0,0.0,0.0,358.7557117133936,0.2800325906708866,54.679790468906084
2026-09-28 19:09:13.814272512,-0.055062988281249996,-0.23940429687499998,10.17707666015625,0.0010652644360316954,0.0,-0.0010652644360316954,358.75597571255156,0.28007756813504503,54.679309088486384
2026-09-28 19:09:13.819648512,-0.06463916015625,-0.24658642578124998,10.251291992187499,0.0,0.0,0.0,358.7558704815959,0.28019784042078555,54.679132596765605
2026-09-28 19:09:13.845917696,-0.01915234375,-0.21785791015624997,10.162712402343749,0.0,0.0,0.0,358.75551554360874,0.2801254271076033,54.67896296357909
2026-09-28 19:09:13.845917696,-0.023940429687499997,-0.22264599609375,10.157924316406248,0.0,0.0,0.0,358.7553249362298,0.28038382210519974,54.67908593840242
2026-09-28 19:09:13.861984768,-0.07182128906249999,-0.20828173828125,10.112437499999999,0.0,0.0,0.0,358.754638728652,0.28043081385905544,54.679216075487425
2026-09-28 19:09:13.887634176,-0.03112255859375,-0.22504003906249997,10.18665283203125,0.0,0.0,0.0,358.7551863056647,0.280715221420218,54.67873628675534
2026-09-28 19:09:13.919121152,-0.028728515625,-0.2537685546875,10.21538134765625,0.0,-0.0010652644360316954,0.0,358.75459896713636,0.28077634413868785,54.67856047002042
2026-09-28 19:09:13.922426112,-0.0335166015625,-0.23940429687499998,10.08610302734375,0.0,-0.0010652644360316954,0.0,358.7540193423405,0.28024263530535387,54.67839789664251
2026-09-28 19:09:13.922426112,-0.043092773437499995,-0.21306982421874998,10.141166015624998,0.0,0.0,0.0,358.7536496035246,0.2799726540077888,54.67853468205464
2026-09-28 19:09:13.922426112,-0.04069873046875,-0.22743408203124998,10.17707666015625,0.0,0.0,0.0,358.7539934664718,0.28009800414335073,54.678663856497444
2026-09-28 19:09:13.929827328,-0.00718212890625,-0.22264599609375,10.141166015624998,0.0,0.0,0.0,358.75433736327557,0.28053225273013405,54.67909146141515
2026-09-28 19:09:13.930390016,-0.055062988281249996,-0.21306982421874998,10.162712402343749,0.0,0.0,0.0,358.75430397241615,0.28022075778783295,54.67922708116962
2026-09-28 19:09:13.930390016,-0.023940429687499997,-0.229828125,10.222563476562499,0.0,0.0,0.0,358.7545530588754,0.28053764087765276,54.67905242343002
2026-09-28 19:09:13.938275840,-0.076609375,-0.21306982421874998,10.179470703124998,0.0,0.0,0.0,358.7554591356575,0.28006349917475465,54.67858463320093
2026-09-28 19:09:13.954191360,-0.028728515625,-0.18912939453125,10.1268017578125,0.0,-0.0010652644360316954,0.0,358.7555760952102,0.28002816172759865,54.678110898020236
2026-09-28 19:09:13.954191360,-0.028728515625,-0.19870556640624998,10.22016943359375,0.0,-0.0010652644360316954,0.0,358.75535269493497,0.27980419373915255,54.678552160045854
2026-09-28 19:09:13.970689024,-0.0047880859375,-0.201099609375,10.24889794921875,0.0,0.0,0.0,358.75601241069575,0.27924493421720026,54.67899988959242
2026-09-28 19:09:13.970689024,-0.0335166015625,-0.1963115234375,10.14834814453125,0.0,0.0,0.0,358.75608207794113,0.27874093473702194,54.67883074640434
2026-09-28 19:09:13.996546816,-0.055062988281249996,-0.2154638671875,10.172288574218749,-0.0010652644360316954,0.0,0.0,358.7558018090707,0.27860311665957177,54.678968023913335
2026-09-28 19:09:14.003234560,-0.023940429687499997,-0.22504003906249997,10.172288574218749,0.0,0.0,0.0,358.7562611199052,0.2784333431559912,54.67940959166398
2026-09-28 19:09:14.012239104,-0.0383046875,-0.22504003906249997,10.167500488281249,0.0,0.0,0.0,358.7563651858957,0.2774077343706813,54.678948879144414
2026-09-28 19:09:14.020159488,-0.035910644531249994,-0.22025195312499998,10.16989453125,0.0010652644360316954,0.0,0.0,358.75670080566505,0.2774264791058423,54.67877301106608
2026-09-28 19:09:14.036047616,-0.04548681640625,-0.23940429687499998,10.167500488281249,0.0,0.0,0.0,358.7568261710515,0.27725241384991905,54.67890921825644
2026-09-28 19:09:14.038021120,-0.0622451171875,-0.24658642578124998,10.1746826171875,-0.0021305288720633907,0.0,0.0,358.75545627526964,0.27711087340577534,54.67873918185849
2026-09-28 19:09:14.053331200,-0.028728515625,-0.22504003906249997,10.229745605468748,-0.0010652644360316954,-0.0010652644360316954,0.0,358.75477247776615,0.27753713166079846,54.67856293155756
2026-09-28 19:09:14.053331200,-0.08857958984374999,-0.229828125,10.0980732421875,0.0,0.0,0.0,358.75484263672195,0.27733829425012096,54.67839402126143
2026-09-28 19:09:14.069954816,-0.05266894531249999,-0.25137451171874997,10.160318359375,0.0,0.0,0.0,358.75454708702205,0.27737214467571153,54.678224621979616
2026-09-28 19:09:14.087519744,-0.04069873046875,-0.23222216796874998,10.26565625,0.0,0.0010652644360316954,0.0,358.75451019405733,0.2774888987714252,54.678353493051844
2026-09-28 19:09:14.116408064,-0.047880859374999994,-0.22743408203124998,10.133983886718749,0.0,0.0,0.0,358.75438020684845,0.27727107161666537,54.678488547568605
2026-09-28 19:09:14.117421824,-0.035910644531249994,-0.2154638671875,10.172288574218749,0.0,0.0,0.0,358.754416634436,0.27725680715471984,54.678617716107574
2026-09-28 19:09:14.136327424,-0.03112255859375,-0.21067578124999997,10.133983886718749,0.0,0.0,0.0,358.75490051424515,0.27756021441139006,54.67813756065347
2026-09-28 19:09:14.167324672,-0.06463916015625,-0.23940429687499998,10.20819921875,0.0021305288720633907,0.0010652644360316954,0.0,358.75533269701486,0.27821467602068406,54.67794896729522
2026-09-28 19:09:14.167324672,-0.043092773437499995,-0.23701025390624997,10.198623046875,0.0,0.0,0.0,358.7557319582179,0.27813014460657354,54.677468386053484
2026-09-28 19:09:14.167324672,-0.047880859374999994,-0.21067578124999997,10.157924316406248,0.0,0.0,-0.0010652644360316954,358.75579934345313,0.27812528569965955,54.67698761722347
2026-09-28 19:09:14.175948800,-0.01675830078125,-0.25137451171874997,10.172288574218749,0.0,0.0,0.0010652644360316954,358.75579288209434,0.27870526767125553,54.6771115920672
2026-09-28 19:09:14.177329664,-0.05266894531249999,-0.20588769531249998,10.1651064453125,0.0,0.0,0.0,358.75600227655616,0.27851566576077674,54.67724023829977
2026-09-28 19:09:14.179105024,-0.026334472656249996,-0.201099609375,10.21059326171875,0.0,0.0,0.0,358.75563045506675,0.27896110531865154,54.67736378437232
2026-09-28 19:09:14.184337152,-0.047880859374999994,-0.21306982421874998,10.11004345703125,0.0,0.0,0.0,358.7561904426631,0.2793717623766792,54.67718237933375
2026-09-28 19:09:14.233845504,-0.04548681640625,-0.24898046875,10.2321396484375,-0.0010652644360316954,-0.0010652644360316954,0.0,358.7559465890515,0.2796171485440728,54.67731177184351
2026-09-28 19:09:14.233845504,-0.026334472656249996,-0.21306982421874998,10.1268017578125,-0.0010652644360316954,-0.0010652644360316954,0.0,358.75509040059774,0.2792175862980927,54.677757924966066
2026-09-28 19:09:14.235757056,-0.047880859374999994,-0.21067578124999997,10.18186474609375,0.0,0.0,0.0,358.7550325574566,0.2790260926934499,54.677284763212825
2026-09-28 19:09:14.235757056,-0.035910644531249994,-0.20828173828125,10.172288574218749,0.0,0.0,0.0,358.7547916256129,0.2791527580459081,54.67680410892136
2026-09-28 19:09:14.252463360,-0.03112255859375,-0.229828125,10.160318359375,0.0,0.0,0.0,358.7551349513205,0.27961125270562726,54.676928239507774
2026-09-28 19:09:14.252463360,-0.04069873046875,-0.19391748046875,10.18186474609375,-0.0010652644360316954,-0.0021305288720633907,0.0,358.7549253673752,0.27890110304492005,54.67707101849512
2026-09-28 19:09:14.269875456,-0.059851074218749994,-0.21306982421874998,10.17707666015625,0.0,-0.0010652644360316954,0.0,358.75517981585716,0.2783116106636613,54.67721450592095
2026-09-28 19:09:14.303321088,-0.05266894531249999,-0.24898046875,10.17707666015625,0.0,-0.0010652644360316954,0.0,358.7550495786432,0.2780275708079068,54.67735776932636
2026-09-28 19:09:14.303321088,-0.0383046875,-0.22025195312499998,10.162712402343749,0.0,0.0010652644360316954,0.0,358.7549360623772,0.2785131754624561,54.677479605897624
2026-09-28 19:09:14.303321088,0.00718212890625,-0.22264599609375,10.160318359375,0.0,0.0,0.0,358.754589306118,0.27892017036360345,54.67760176024725
2026-09-28 19:09:14.313330944,0.011970214843749999,-0.23940429687499998,10.205805175781249,0.0,0.0010652644360316954,0.0010652644360316954,358.75443051379546,0.2796183921384216,54.67771173493506
2026-09-28 19:09:14.313330944,-0.05745703125,-0.23701025390624997,10.189046874999999,0.0,0.0010652644360316954,0.0,358.75428596043315,0.2799307317768026,54.67782668636944
2026-09-28 19:09:14.313330944,-0.043092773437499995,-0.25137451171874997,10.227351562499999,0.0,0.0010652644360316954,0.0010652644360316954,358.75461145134295,0.28037283673149266,54.67794928455057
2026-09-28 19:09:14.322840320,-0.06463916015625,-0.229828125,10.2034111328125,0.0,0.0010652644360316954,0.0,358.7540465680851,0.2814833594616514,54.67775364673051
2026-09-28 19:09:14.322840320,-0.009576171875,-0.21785791015624997,10.13158984375,0.0,0.0,0.0,358.7539728229999,0.28231288870466165,54.67756547912824
2026-09-28 19:09:14.337870080,-0.028728515625,-0.21067578124999997,10.16989453125,0.0,0.0,0.0,358.7540536440072,0.2819059860196226,54.677091297953154
2026-09-28 19:09:14.352443648,-0.0047880859375,-0.23222216796874998,10.172288574218749,0.0,0.0,0.0010652644360316954,358.7547750793629,0.28176795407292415,54.677532714334724
2026-09-28 19:09:14.354476544,-0.04548681640625,-0.22025195312499998,10.18186474609375,0.0,0.0,0.0,358.75461430914066,0.2816253323121767,54.677662437777954
2026-09-28 19:09:14.369928704,-0.028728515625,-0.19152343749999998,10.16989453125,0.0,0.0,0.0,358.7549593467099,0.28156771958904997,54.67748671545372
2026-09-28 19:09:14.369928704,-0.01915234375,-0.22504003906249997,10.160318359375,0.0,0.0,0.0,358.75503195354526,0.2814498294141585,54.67761761666955
2026-09-28 19:09:14.386433280,-0.035910644531249994,-0.23701025390624997,10.141166015624998,0.0010652644360316954,0.0,0.0,358.75537160202174,0.28101695923258246,54.67775359559342
2026-09-28 19:09:14.400058112,-0.043092773437499995,-0.22504003906249997,10.1938349609375,0.0,0.0,0.0,358.75555113835003,0.2806768984833949,54.67728000987531
2026-09-28 19:09:14.404406528,-0.08618554687499999,-0.22264599609375,10.172288574218749,0.0,-0.0010652644360316954,0.0,358.7551901385138,0.28063247460926855,54.677713903191325
2026-09-28 19:09:14.419674880,-0.0335166015625,-0.23940429687499998,10.141166015624998,0.0,0.0,0.0,358.7550971187186,0.2807022904005992,54.677850599299106
2026-09-28 19:09:14.419674880,-0.03112255859375,-0.20588769531249998,10.227351562499999,0.0,0.0,0.0010652644360316954,358.7551126147688,0.28069308249440134,54.67797980968157
2026-09-28 19:09:14.442623744,-0.0335166015625,-0.22264599609375,10.11961962890625,0.0,0.0,0.0,358.7548634422332,0.28082242061188467,54.677804031904614
2026-09-28 19:09:14.448976384,-0.03112255859375,-0.23222216796874998,10.184258789062499,0.0,0.0,0.0,358.75461699058843,0.28107342099602506,54.67762174032099
2026-09-28 19:09:14.458546944,-0.055062988281249996,-0.23222216796874998,10.234533691406249,0.0,0.0,0.0,358.75451319672004,0.2812494313786162,54.67774360732664
2026-09-28 19:09:14.464553472,-0.00239404296875,-0.23461621093749999,10.18665283203125,0.0,0.0,0.0,358.75472879264794,0.28113878646733603,54.67757374524525
2026-09-28 19:09:14.473457408,-0.0383046875,-0.24179833984375,10.179470703124998,0.0,-0.0010652644360316954,0.0,358.7544778807153,0.2805262725213127,54.67802139874493
2026-09-28 19:09:14.485704960,0.00718212890625,-0.21785791015624997,10.222563476562499,0.0,0.0,0.0,358.75440053688914,0.28033820501741336,54.677851603965706
2026-09-28 19:09:14.502509824,-0.023940429687499997,-0.22504003906249997,10.08131494140625,0.0,0.0010652644360316954,0.0,358.75445618677435,0.28083392359764286,54.67735096999322
2026-09-28 19:09:14.502509824,-0.055062988281249996,-0.24179833984375,10.16989453125,0.0,0.0,0.0,358.7545888453416,0.2813048106317656,54.67685736939621
2026-09-28 19:09:14.518057472,-0.0622451171875,-0.201099609375,10.16989453125,0.0,0.0010652644360316954,0.0,358.7549577577077,0.2818583339461972,54.676674985760606
2026-09-28 19:09:14.526057728,-0.05266894531249999,-0.23461621093749999,10.172288574218749,-0.0010652644360316954,0.0,0.0,358.7547205001116,0.28197237735590097,54.67649935175466
2026-09-28 19:09:14.541718528,-0.04548681640625,-0.24419238281249997,10.102861328125,0.0,-0.0010652644360316954,0.0,358.754231456745,0.281867393102173,54.67663564091594
2026-09-28 19:09:14.541718528,-0.08618554687499999,-0.26334472656249996,10.222563476562499,0.0,0.0,0.0,358.75421229804823,0.28234819571158903,54.67675802646767
2026-09-28 19:09:14.560861696,-0.01675830078125,-0.24898046875,10.18665283203125,0.0,0.0,0.0,358.75389233631444,0.2826446007914796,54.676581988232826
2026-09-28 19:09:14.573982976,-0.05745703125,-0.20349365234374997,10.18186474609375,0.0,0.0,0.0010652644360316954,358.7539824285016,0.2825117165977929,54.67732037666492
2026-09-28 19:09:14.573982976,-0.023940429687499997,-0.22264599609375,10.22495751953125,0.0,0.0010652644360316954,0.0,358.7543661456426,0.2827250809061752,54.67744974676707
2026-09-28 19:09:14.587300352,-0.0383046875,-0.24179833984375,10.189046874999999,0.0,0.0,0.0,358.7542137325053,0.2830754843323484,54.67726783077125
2026-09-28 19:09:14.618884352,-0.0383046875,-0.2154638671875,10.1651064453125,0.0010652644360316954,0.0010652644360316954,0.0,358.7544213907782,0.2839293949725258,54.67768170377572
2026-09-28 19:09:14.642953472,-0.047880859374999994,-0.23222216796874998,10.129195800781249,0.0,0.0,0.0,358.7545524972365,0.2844312338815736,54.677188053961075
2026-09-28 19:09:14.642953472,-0.043092773437499995,-0.23222216796874998,10.205805175781249,0.0,0.0,0.0010652644360316954,358.7548599852998,0.28417576697675767,54.67732529182006
2026-09-28 19:09:14.658373888,-0.05027490234375,-0.21067578124999997,10.172288574218749,0.0,0.0,0.0,358.75513177124293,0.2836149206510447,54.67746895124216
2026-09-28 19:09:14.658373888,-0.0335166015625,-0.21785791015624997,10.18665283203125,-0.0010652644360316954,-0.0010652644360316954,0.0010652644360316954,358.75463328877606,0.2834333429234725,54.67791035024862
2026-09-28 19:09:14.658373888,-0.0335166015625,-0.22264599609375,10.1746826171875,0.0,-0.0010652644360316954,0.0,358.7542112243519,0.2830340451515344,54.6780521270299
2026-09-28 19:09:14.658373888,-0.00239404296875,-0.2154638671875,10.150742187499999,0.0,0.0,0.0,358.75432196815075,0.2829873566582559,54.67848689359048
2026-09-28 19:09:14.675447040,-0.07421533203125,-0.23701025390624997,10.18186474609375,0.0,-0.0010652644360316954,0.0010652644360316954,358.7540447585702,0.28281546811236635,54.679232918471826
2026-09-28 19:09:14.682381824,-0.059851074218749994,-0.24419238281249997,10.227351562499999,-0.0010652644360316954,0.0,0.0,358.7534372476236,0.28257059688865654,54.679673706016416
2026-09-28 19:09:14.688828672,-0.028728515625,-0.23222216796874998,10.155530273437499,0.0,0.0,0.0,358.7529989040077,0.28305931684713115,54.67979536455573
2026-09-28 19:09:14.702460416,-0.01915234375,-0.23461621093749999,10.14356005859375,-0.0010652644360316954,-0.0010652644360316954,0.0,358.75209810045476,0.28223793750821835,54.67994439140563
2026-09-28 19:09:14.706472192,-0.043092773437499995,-0.21067578124999997,10.2034111328125,0.0,-0.0010652644360316954,0.0010652644360316954,358.75191928108273,0.28202675900798524,54.680080834640826
2026-09-28 19:09:14.728286720,-0.04069873046875,-0.2154638671875,10.196229003906248,0.0,0.0,0.0,358.75171334208574,0.2825380820380302,54.67989861570052
2026-09-28 19:09:14.731915520,-0.043092773437499995,-0.23222216796874998,10.20819921875,0.0,0.0,0.0,358.75154850898764,0.2827706154722451,54.68033353106949
2026-09-28 19:09:14.745304576,-0.0335166015625,-0.26095068359374995,10.133983886718749,0.0,0.0,0.0,358.7516474182497,0.2830891025358405,54.68045632146044
2026-09-28 19:09:14.746814976,-0.028728515625,-0.22743408203124998,10.189046874999999,0.0,0.0,0.0,358.7514941507337,0.2827913948772274,54.680896401405136
2026-09-28 19:09:14.770611968,-0.04069873046875,-0.21067578124999997,10.162712402343749,0.0,0.0,0.0010652644360316954,358.75200970629794,0.28236019155258507,54.68133833737051
2026-09-28 19:09:14.770611968,-0.043092773437499995,-0.21306982421874998,10.18186474609375,0.0,0.0,0.0,358.7518891926667,0.28327002196792334,54.68114998465794
2026-09-28 19:09:14.793775616,-0.07182128906249999,-0.20349365234374997,10.20819921875,0.0,0.0,0.0,358.7520309049765,0.2831761016225876,54.68127983561022
2026-09-28 19:09:14.793775616,-0.05266894531249999,-0.201099609375,10.15313623046875,0.0,0.0,0.0,358.7518509494741,0.28349324239278856,54.68140948678618
2026-09-28 19:09:14.802436096,-0.028728515625,-0.23701025390624997,10.15313623046875,0.0,0.0,0.0,358.75201755348263,0.2832797208340192,54.68154608941631
2026-09-28 19:09:14.804221184,-0.023940429687499997,-0.24179833984375,10.157924316406248,0.0,-0.0010652644360316954,0.0,358.75194618468163,0.2827279534255341,54.68138302869859
2026-09-28 19:09:14.820196608,-0.028728515625,-0.23940429687499998,10.19144091796875,0.0,0.0,0.0,358.7526009833232,0.2823176270035866,54.681519031419334
2026-09-28 19:09:14.820196608,-0.05027490234375,-0.22025195312499998,10.155530273437499,0.0,-0.0010652644360316954,0.0010652644360316954,358.7522518434274,0.2817407983138879,54.68135612343966
2026-09-28 19:09:14.838395904,-0.021546386718749998,-0.24179833984375,10.1651064453125,0.0010652644360316954,0.0,0.0010652644360316954,358.7531473181599,0.28162331840456434,54.68149331599031
2026-09-28 19:09:14.850053120,-0.026334472656249996,-0.23940429687499998,10.17707666015625,0.0,-0.0010652644360316954,0.0,358.7529563710438,0.28096854986005465,54.6813311404799
2026-09-28 19:09:14.852821504,-0.067033203125,-0.21306982421874998,10.22495751953125,0.0,-0.0010652644360316954,0.0010652644360316954,358.752597457426,0.2806358760125456,54.68177174691009
2026-09-28 19:09:14.871361024,-0.043092773437499995,-0.20349365234374997,10.14356005859375,0.0,0.0,0.0,358.75268173593656,0.2805380653320753,54.68221292667969
2026-09-28 19:09:14.882036736,-0.05266894531249999,-0.21785791015624997,10.17707666015625,0.0,0.0,-0.0010652644360316954,358.75289172310147,0.28027152681585393,54.681434405693025
2026-09-28 19:09:14.890519296,-0.01675830078125,-0.24658642578124998,10.184258789062499,0.0,0.0,0.0,358.75293491343143,0.2808591532457076,54.68094696379151
2026-09-28 19:09:14.903102208,-0.059851074218749994,-0.22264599609375,10.22016943359375,0.0021305288720633907,0.0,0.0,358.75388214090685,0.28126069276016835,54.68106947502238
2026-09-28 19:09:14.903102208,-0.04069873046875,-0.23461621093749999,10.150742187499999,0.0,0.0,0.0,358.75411280221203,0.28120987332762326,54.68120478887369
2026-09-28 19:09:14.920195072,-0.04548681640625,-0.24179833984375,10.198623046875,0.0,-0.0010652644360316954,0.0,358.75373958150186,0.2805241668289061,54.680736640899966
2026-09-28 19:09:14.938321664,-0.03112255859375,-0.20828173828125,10.196229003906248,0.0,0.0,0.0,358.753682914537,0.27995062680493377,54.680573653536705
2026-09-28 19:09:14.940472064,-0.011970214843749999,-0.22743408203124998,10.2034111328125,0.0,0.0,0.0,358.7532575985789,0.2800734722965019,54.680703569299595
2026-09-28 19:09:14.954426624,-0.07900341796874999,-0.22743408203124998,10.196229003906248,0.0,0.0,0.0,358.753674398003,0.27997871514040573,54.68116872398213
2026-09-28 19:09:14.958609408,-0.0047880859375,-0.21785791015624997,10.162712402343749,0.0,0.0,0.0,358.75301313835934,0.2799301124346851,54.68133461459861
2026-09-28 19:09:14.985949696,-0.0335166015625,-0.19870556640624998,10.160318359375,0.0,0.0,0.0,358.75282018984825,0.28014277780976615,54.68118297895486
2026-09-28 19:09:14.990555648,-0.026334472656249996,-0.25137451171874997,10.157924316406248,0.0,0.0,0.0,358.7526795228725,0.279878178431134,54.68103831349379
2026-09-28 19:09:15.013556480,-0.01915234375,-0.24179833984375,10.1938349609375,0.0,-0.0010652644360316954,0.0,358.75217418175026,0.2797779049576345,54.68120345230171
2026-09-28 19:09:15.035951104,-0.05027490234375,-0.258556640625,10.189046874999999,0.0,0.0,0.0010652644360316954,358.7516717188059,0.279247539298292,54.68168196990611
2026-09-28 19:09:15.035951104,-0.023940429687499997,-0.201099609375,10.16989453125,0.0,0.0010652644360316954,0.0,358.75162908255555,0.2800604088162888,54.68121794011362
2026-09-28 19:09:15.045456640,-0.067033203125,-0.18673535156249998,10.1363779296875,0.0,0.0010652644360316954,0.0,358.75166639952886,0.2804904564785589,54.68076240511579
2026-09-28 19:09:15.052759808,-0.0047880859375,-0.181947265625,10.198623046875,0.0,-0.0010652644360316954,0.0,358.75194785935963,0.2803902511980035,54.68031996907848
2026-09-28 19:09:15.061271552,-0.023940429687499997,-0.23222216796874998,10.18665283203125,-0.0010652644360316954,0.0,0.0,358.7522556822069,0.27956026284066016,54.68049432378933
2026-09-28 19:09:15.061271552,-0.03112255859375,-0.22264599609375,10.21059326171875,0.0,-0.0010652644360316954,0.0010652644360316954,358.75224913092603,0.2793204290685421,54.68096562041006
2026-09-28 19:09:15.061271552,-0.035910644531249994,-0.229828125,10.141166015624998,0.0,0.0,0.0,358.75193066033586,0.27977738461519325,54.680508310662
2026-09-28 19:09:15.069019392,-0.06463916015625,-0.19870556640624998,10.145954101562499,-0.0010652644360316954,-0.0010652644360316954,0.0010652644360316954,358.75139911139894,0.2794623809392565,54.68097993654042
2026-09-28 19:09:15.069515776,-0.03112255859375,-0.22504003906249997,10.184258789062499,0.0,0.0,0.0,358.7517214169351,0.2788851420242151,54.681154349755815
2026-09-28 19:09:15.086080256,-0.009576171875,-0.22025195312499998,10.129195800781249,0.0,0.0,0.0010652644360316954,358.75179144937965,0.2786609822365137,54.6816259867754
2026-09-28 19:09:15.104846592,-0.055062988281249996,-0.20349365234374997,10.15313623046875,0.0,0.0,0.0,358.7521018175522,0.27888290906016194,54.681168801075664
2026-09-28 19:09:15.104846592,-0.021546386718749998,-0.24179833984375,10.172288574218749,0.0,0.0,0.0,358.7526329490512,0.2789297514902447,54.68071946418019
2026-09-28 19:09:15.119511040,-0.04548681640625,-0.26095068359374995,10.201017089843749,0.0,0.0,0.0,358.75291274025875,0.2786060388336281,54.680885531623616
2026-09-28 19:09:15.133017088,-0.055062988281249996,-0.229828125,10.20819921875,0.0,0.0,0.0,358.75299694478997,0.27846011790467523,54.6807456309646
2026-09-28 19:09:15.143013376,-0.04069873046875,-0.22264599609375,10.1938349609375,0.0,0.0,0.0,358.7532164728656,0.27855900309614273,54.68091146259397
2026-09-28 19:09:15.152739328,-0.0383046875,-0.20828173828125,10.1363779296875,0.0,0.0,0.0,358.7522406094126,0.27918882100672765,54.6810639784566
2026-09-28 19:09:15.166856448,-0.011970214843749999,-0.24179833984375,10.19144091796875,0.0,-0.0010652644360316954,0.0,358.7523340391171,0.2789364628462053,54.680932272307906
2026-09-28 19:09:15.170184960,-0.047880859374999994,-0.24179833984375,10.13158984375,-0.0010652644360316954,-0.0010652644360316954,0.0,358.7513811153593,0.2780691114665645,54.68111155252214
2026-09-28 19:09:15.196811264,-0.05745703125,-0.21306982421874998,10.112437499999999,0.0010652644360316954,0.0,0.0,358.75180353523916,0.2778269296697119,54.68066820468435
2026-09-28 19:09:15.196811264,-0.04069873046875,-0.26095068359374995,10.157924316406248,0.0,0.0,0.0,358.75192452987187,0.2778261083548238,54.680834939813685
2026-09-28 19:09:15.202610176,-0.07421533203125,-0.22264599609375,10.1268017578125,0.0,0.0,0.0,358.75143257987855,0.2784987071657337,54.68037021641901
2026-09-28 19:09:15.215388416,-0.0335166015625,-0.26095068359374995,10.172288574218749,0.0,0.0,0.0,358.7520460831922,0.27890986859483485,54.68022466411688
2026-09-28 19:09:15.223033344,-0.067033203125,-0.17715917968749997,10.201017089843749,0.0,0.0,0.0,358.7525748182633,0.278659548212687,54.680085434115846
2026-09-28 19:09:15.233207808,-0.08379150390625,-0.19870556640624998,10.222563476562499,0.0010652644360316954,0.0,0.0010652644360316954,358.7539067334694,0.2788189083979088,54.68055206716107
2026-09-28 19:09:15.244506880,0.021546386718749998,-0.22025195312499998,10.14356005859375,0.0,-0.0010652644360316954,-0.0010652644360316954,358.75421468438356,0.27871811384502015,54.680109548964104
2026-09-28 19:09:15.252664576,-0.0383046875,-0.2537685546875,10.196229003906248,0.0,0.0,0.0,358.753726692775,0.2781454721741283,54.68027627241683
2026-09-28 19:09:15.269002752,-0.05027490234375,-0.23701025390624997,10.212987304687498,0.0,0.0,0.0,358.7532989558593,0.27815505703525584,54.68043520040942
2026-09-28 19:09:15.270003968,-0.047880859374999994,-0.22504003906249997,10.167500488281249,0.0,-0.0010652644360316954,0.0,358.7528226514799,0.27763943538120717,54.680303666291124
2026-09-28 19:09:15.286305024,-0.035910644531249994,-0.21785791015624997,10.157924316406248,0.0,-0.0010652644360316954,0.0010652644360316954,358.75257520361896,0.2774298393728574,54.68077527813484
2026-09-28 19:09:15.288753920,-0.06942724609374999,-0.21067578124999997,10.160318359375,0.0,0.0,0.0010652644360316954,358.75271637458906,0.27746133770770137,54.68124730594442
2026-09-28 19:09:15.299842048,-0.026334472656249996,-0.22025195312499998,10.196229003906248,0.0,0.0,0.0,358.75262555247855,0.2777888722976148,54.68140799151239
2026-09-28 19:09:15.315622144,-0.04069873046875,-0.201099609375,10.17707666015625,0.0,0.0,0.0,358.75260330354115,0.277631802717305,54.681269019528074
2026-09-28 19:09:15.319997696,-0.043092773437499995,-0.1963115234375,10.196229003906248,0.0,0.0,0.0,358.75213815885525,0.2776619715101062,54.681124094610794
2026-09-28 19:09:15.352540928,-0.026334472656249996,-0.22025195312499998,10.1651064453125,0.0,0.0,0.0,358.7520759472974,0.27816146484602144,54.6812782024454
2026-09-28 19:09:15.353464832,-0.0047880859375,-0.22743408203124998,10.155530273437499,0.0,0.0,0.0,358.7524604416703,0.27821705420614645,54.68113307512941
2026-09-28 19:09:15.379292416,-0.04548681640625,-0.22504003906249997,10.167500488281249,0.0,0.0,0.0,358.75259418525,0.2783458497491855,54.68128673771472
2026-09-28 19:09:15.381146624,-0.0383046875,-0.2537685546875,10.179470703124998,0.0,0.0,0.0,358.7522757715312,0.2786656323742788,54.68114115075356
2026-09-28 19:09:15.395167488,-0.04069873046875,-0.21306982421874998,10.229745605468748,0.0,-0.0010652644360316954,0.0,358.7525017029611,0.2773874749525467,54.680716809411784
2026-09-28 19:09:15.419649536,-0.076609375,-0.23940429687499998,10.18665283203125,0.0,0.0,0.0,358.7527337610851,0.27759538362805475,54.68087604272493
2026-09-28 19:09:15.419649536,-0.023940429687499997,-0.25137451171874997,10.2034111328125,0.0,0.0,0.0,358.7530520121341,0.2779225371164172,54.680425513269356
2026-09-28 19:09:15.452556032,-0.01675830078125,-0.229828125,10.205805175781249,0.0010652644360316954,0.0,0.0,358.75357605428576,0.2778646135840123,54.680584668820586
2026-09-28 19:09:15.453499392,-0.026334472656249996,-0.22504003906249997,10.184258789062499,0.0,0.0,0.0010652644360316954,358.7535189917885,0.277707153840475,54.68104908300348
2026-09-28 19:09:15.453499392,-0.0383046875,-0.20828173828125,10.222563476562499,0.0,0.0010652644360316954,0.0,358.75398399443316,0.2778824028328843,54.68089773314157
2026-09-28 19:09:15.453499392,-0.05027490234375,-0.21785791015624997,10.172288574218749,0.0,0.0,0.0,358.7548267185288,0.2776644837882167,54.68106497988032
2026-09-28 19:09:15.453499392,-0.021546386718749998,-0.25137451171874997,10.160318359375,0.0,-0.0010652644360316954,0.0,358.7549520827702,0.27781357483278246,54.6809202083541
2026-09-28 19:09:15.469837056,-0.04548681640625,-0.201099609375,10.15313623046875,0.0,0.0,0.0,358.7540956872591,0.277154923029687,54.68078687098255
2026-09-28 19:09:15.471126272,-0.0335166015625,-0.20349365234374997,10.167500488281249,0.0,0.0,0.0,358.7537490245079,0.27734431160604184,54.680642687083136
2026-09-28 19:09:15.472346368,-0.026334472656249996,-0.23701025390624997,10.21538134765625,0.0,0.0,-0.0010652644360316954,358.75338821559706,0.2774605163468828,54.68019170983175
2026-09-28 19:09:15.481332480,-0.05027490234375,-0.22025195312499998,10.179470703124998,0.0,-0.0021305288720633907,0.0,358.75344315351526,0.27652830654677857,54.67976135370764
2026-09-28 19:09:15.490095360,-0.059851074218749994,-0.22504003906249997,10.16989453125,0.0,0.0,0.0,358.7538332459406,0.27585202167296763,54.679324443600954
2026-09-28 19:09:15.498200576,-0.035910644531249994,-0.24419238281249997,10.13158984375,0.0,-0.0010652644360316954,0.0,358.75381023874803,0.27582466574637676,54.68010071179207
2026-09-28 19:09:15.514176768,-0.028728515625,-0.1963115234375,10.1938349609375,0.0,0.0,0.0,358.7534536134081,0.27539038457463727,54.68026667529033
2026-09-28 19:09:15.519666432,-0.01915234375,-0.1963115234375,10.18665283203125,0.0,0.0,0.0,358.75338179651374,0.27508496060435783,54.680433986152664
2026-09-28 19:09:15.520089344,-0.04069873046875,-0.258556640625,10.20819921875,0.0,0.0,0.0010652644360316954,358.7535588370738,0.275410731113872,54.680892877129544
2026-09-28 19:09:15.536585984,-0.03112255859375,-0.22504003906249997,10.167500488281249,0.0,0.0,0.0,358.75358940699357,0.2755495957809152,54.6807475204202
2026-09-28 19:09:15.547948288,-0.076609375,-0.2154638671875,10.205805175781249,0.0,0.0,0.0010652644360316954,358.75365342785216,0.2757162905656061,54.68121260735282
2026-09-28 19:09:15.562888704,-0.043092773437499995,-0.1963115234375,10.19144091796875,0.0,0.0,0.0,358.75376724014217,0.2759260727336524,54.681379284587564
2026-09-28 19:09:15.571463936,-0.0383046875,-0.21785791015624997,10.157924316406248,0.0,0.0,0.0,358.7543653390913,0.27576603355596424,54.68154686490214
2026-09-28 19:09:15.578955008,-0.04069873046875,-0.25137451171874997,10.138771972656249,0.0,0.0,0.0010652644360316954,358.75421666420704,0.2757602369373506,54.682012243713054
2026-09-28 19:09:15.586280960,-0.03112255859375,-0.21067578124999997,10.157924316406248,0.0,0.0010652644360316954,0.0,358.75425112623594,0.27627821519856866,54.68216537725267
2026-09-28 19:09:15.586280960,-0.01915234375,-0.23222216796874998,10.13158984375,0.0,-0.0010652644360316954,0.0,358.7543726378196,0.2759869149913434,54.68172349256128
2026-09-28 19:09:15.607864320,-0.03112255859375,-0.23222216796874998,10.184258789062499,0.0,0.0,0.0,358.75452460606675,0.275677002716039,54.68219551966418
2026-09-28 19:09:15.619056896,-0.07182128906249999,-0.22264599609375,10.172288574218749,0.0,0.0,0.0,358.75446658727253,0.27608230267743017,54.682043066596755
2026-09-28 19:09:15.625562624,-0.08379150390625,-0.21067578124999997,10.212987304687498,0.0,0.0,0.0,358.7547256690269,0.27609494979290444,54.6815990101138
2026-09-28 19:09:15.641569792,-0.0335166015625,-0.20349365234374997,10.196229003906248,-0.0010652644360316954,-0.0010652644360316954,0.0,358.75455221023606,0.2758016639364551,54.68177249454623
2026-09-28 19:09:15.649711616,-0.021546386718749998,-0.21785791015624997,10.129195800781249,0.0,0.0,0.0,358.7550268867509,0.2758613356986167,54.68162790280747
2026-09-28 19:09:15.657992960,-0.076609375,-0.19870556640624998,10.179470703124998,0.0,0.0,0.0,358.7549572858293,0.2762063920852021,54.68178052994222
2026-09-28 19:09:15.657992960,-0.035910644531249994,-0.24419238281249997,10.217775390624999,-0.0010652644360316954,-0.0010652644360316954,0.0,358.7545837206343,0.2766814428181235,54.68194127398566
2026-09-28 19:09:15.678910976,-0.05745703125,-0.23461621093749999,10.145954101562499,0.0,0.0,0.0,358.75449604421254,0.2763136999990065,54.68180199950316
2026-09-28 19:09:15.691776512,-0.021546386718749998,-0.23222216796874998,10.18665283203125,0.0,0.0,0.0010652644360316954,358.7549799353152,0.27619442406910544,54.68196763987667
2026-09-28 19:09:15.707209216,-0.021546386718749998,-0.23461621093749999,10.160318359375,0.0,0.0,0.0,358.75533563775576,0.2769295845121859,54.68241926235845
2026-09-28 19:09:15.707209216,-0.026334472656249996,-0.23222216796874998,10.201017089843749,0.0,0.0,0.0010652644360316954,358.755057233252,0.27722567224066735,54.68287749588481
2026-09-28 19:09:15.737578240,-0.05745703125,-0.201099609375,10.124407714843748,0.0,0.0,0.0,358.7546107467481,0.2768397116039398,54.682432911793676
2026-09-28 19:09:15.737578240,-0.028728515625,-0.229828125,10.160318359375,0.0,0.0,0.0,358.75478498834104,0.2769052877659791,54.68198317338362
2026-09-28 19:09:15.770774784,-0.03112255859375,-0.25137451171874997,10.217775390624999,0.0,0.0,0.0,358.75406300797624,0.27708308557394923,54.68183201144312
2026-09-28 19:09:15.777765376,-0.06463916015625,-0.24898046875,10.1363779296875,-0.0010652644360316954,0.0,0.0,358.75304050488904,0.27723298436968163,54.68168595743461
2026-09-28 19:09:15.778802432,-0.023940429687499997,-0.24658642578124998,10.179470703124998,0.0,0.0,0.0,358.7528786862218,0.27740967600089134,54.68153965746692
2026-09-28 19:09:15.782723328,-0.028728515625,-0.23701025390624997,10.1651064453125,0.0,-0.0010652644360316954,0.0010652644360316954,358.75249706334466,0.2767902561526012,54.682017227576495
2026-09-28 19:09:15.788034816,-0.059851074218749994,-0.22264599609375,10.227351562499999,0.0,0.0,0.0,358.75244292309503,0.2768352243685527,54.68187145503193
2026-09-28 19:09:15.789318400,-0.0143642578125,-0.21306982421874998,10.217775390624999,-0.0010652644360316954,-0.0010652644360316954,0.0,358.75191297554636,0.2765079784409446,54.68173972012983
2026-09-28 19:09:15.802919424,-0.01915234375,-0.23701025390624997,10.20819921875,0.0,0.0,0.0,358.75209159713705,0.275842621264835,54.68130327241207
2026-09-28 19:09:15.810210816,-0.059851074218749994,-0.20349365234374997,10.1746826171875,0.0,0.0,0.0,358.75191594319915,0.2757355626027645,54.68146189656938
2026-09-28 19:09:15.819058176,-0.021546386718749998,-0.2154638671875,10.1651064453125,0.0,0.0,0.0,358.7527039089494,0.27519147289239115,54.68163560335484
2026-09-28 19:09:15.832234752,0.0,-0.2154638671875,10.155530273437499,0.0,0.0,0.0,358.7528003550598,0.27457566952995194,54.6815038811942
2026-09-28 19:09:15.845830912,0.0047880859375,-0.24179833984375,10.246503906249998,0.0,0.0,0.0,358.7529250816287,0.2744016497082467,54.681359075233004
2026-09-28 19:09:15.848496640,-0.04069873046875,-0.22743408203124998,10.184258789062499,0.0,-0.0010652644360316954,0.0,358.7526062342117,0.27382567444099254,54.681220164877686
2026-09-28 19:09:15.864137216,-0.06942724609374999,-0.2537685546875,10.179470703124998,0.0,0.0,0.0,358.75309240466004,0.27324537502298774,54.681392378399586
2026-09-28 19:09:15.868178688,-0.055062988281249996,-0.23222216796874998,10.189046874999999,0.0,0.0,0.0010652644360316954,358.7527366439603,0.274330661159775,54.68183700828377
2026-09-28 19:09:15.881767424,-0.0383046875,-0.24658642578124998,10.198623046875,0.0,0.0,0.0,358.75277850604056,0.2743924018009166,54.68169843028612
2026-09-28 19:09:15.881767424,-0.06942724609374999,-0.23222216796874998,10.160318359375,0.0,0.0010652644360316954,0.0010652644360316954,358.75269238636304,0.27440786266926614,54.681857646401426
2026-09-28 19:09:15.895900928,-0.028728515625,-0.24179833984375,10.189046874999999,0.0,-0.0010652644360316954,0.0010652644360316954,358.7522562666566,0.2743968786499103,54.68202342807919
2026-09-28 19:09:15.914137856,-0.0383046875,-0.24179833984375,10.14834814453125,0.0,0.0,0.0,358.75229872474523,0.2739565177847332,54.682495054675734
2026-09-28 19:09:15.915158016,-0.0383046875,-0.24658642578124998,10.14356005859375,0.0,0.0,0.0010652644360316954,358.7519677763547,0.27444498336728396,54.68295303762917
2026-09-28 19:09:15.927792896,-0.01675830078125,-0.20828173828125,10.2321396484375,0.0,0.0,0.0,358.7518466151493,0.27491294243325404,54.68310535116387
2026-09-28 19:09:15.943565568,-0.0383046875,-0.25137451171874997,10.18186474609375,0.0,0.0,0.0,358.75224192073097,0.27456866393088125,54.68327199031505
2026-09-28 19:09:15.943565568,-0.067033203125,-0.22264599609375,10.18665283203125,0.0,0.0,0.0,358.75224340710275,0.2748696680052825,54.68311984074873
2026-09-28 19:09:15.959076096,-0.05745703125,-0.17476513671875,10.167500488281249,0.0,-0.0010652644360316954,0.0,358.7519866722243,0.27513471992996985,54.68327963861429
2026-09-28 19:09:15.959076096,-0.0622451171875,-0.24898046875,10.21059326171875,0.0,0.0,0.0,358.7525783376822,0.2748592894952792,54.683447117726956
2026-09-28 19:09:15.974768384,-0.01675830078125,-0.24658642578124998,10.21538134765625,0.0,0.0,0.0010652644360316954,358.75258647630017,0.274588658184768,54.68391854247436
2026-09-28 19:09:15.990465280,-0.05745703125,-0.17955322265624998,10.17707666015625,0.0,0.0,0.0,358.75206617289194,0.2749143538172684,54.68376533331678
2026-09-28 19:09:15.990465280,-0.043092773437499995,-0.20588769531249998,10.2034111328125,0.0,0.0,0.0,358.7523577988323,0.275360870686256,54.68422483829699
2026-09-28 19:09:16.005945856,-0.026334472656249996,-0.24179833984375,10.196229003906248,0.0,0.0,0.0,358.7524477683996,0.27552537399533195,54.6840797655408
2026-09-28 19:09:16.023199488,-0.04069873046875,-0.258556640625,10.1746826171875,0.0,0.0,0.0,358.7520734209458,0.27507652016051687,54.683635564767144
2026-09-28 19:09:16.024956928,-0.035910644531249994,-0.21067578124999997,10.162712402343749,0.0,0.0,0.0,358.75156974007456,0.2748659857524395,54.68319068300962
2026-09-28 19:09:16.054738688,-0.059851074218749994,-0.24419238281249997,10.160318359375,0.0,0.0,0.0,358.75156880567295,0.2745105041328137,54.68274822201396
2026-09-28 19:09:16.056403712,-0.06463916015625,-0.2154638671875,10.198623046875,0.0,0.0,0.0,358.7514829867768,0.2745448978641169,54.68260893897036
2026-09-28 19:09:16.069037568,-0.059851074218749994,-0.23940429687499998,10.1268017578125,0.0,0.0,0.0,358.7517634222108,0.27466018925050245,54.68246477888746
2026-09-28 19:09:16.108846592,-0.026334472656249996,-0.2537685546875,10.227351562499999,0.0,0.0,0.0,358.7513941310917,0.27529167702003404,54.68231230761574
2026-09-28 19:09:16.108846592,-0.028728515625,-0.22025195312499998,10.157924316406248,0.0010652644360316954,0.0,0.0,358.7519828433929,0.2755242534496207,54.68216661624097
2026-09-28 19:09:16.131681792,-0.01915234375,-0.22504003906249997,10.15313623046875,0.0,0.0,0.0,358.75251628764346,0.27533309553935137,54.68263908060581
2026-09-28 19:09:16.147123200,0.0047880859375,-0.24658642578124998,10.157924316406248,-0.0010652644360316954,0.0,0.0,358.75233857449825,0.275309023474309,54.68280591681721
2026-09-28 19:09:16.147123200,-0.04069873046875,-0.24419238281249997,10.179470703124998,0.0,0.0,0.0,358.752348731211,0.2749146214668129,54.6829655507842
2026-09-28 19:09:16.147123200,-0.011970214843749999,-0.20828173828125,10.24889794921875,0.0,-0.0010652644360316954,0.0,358.7519644727095,0.2746113441164398,54.68252118131332
2026-09-28 19:09:16.162881024,-0.028728515625,-0.16518896484374998,10.083708984374999,0.0,0.0,0.0,358.7513906647805,0.2752091114837698,54.6826675800803
2026-09-28 19:09:16.162881024,-0.043092773437499995,-0.20828173828125,10.14834814453125,0.0,0.0,0.0,358.7522803636636,0.27498817679465176,54.682836477655336
2026-09-28 19:09:16.162881024,-0.07182128906249999,-0.23940429687499998,10.1938349609375,0.0,0.0,0.0010652644360316954,358.7523483212128,0.2746261839071969,54.683308122870336
2026-09-28 19:09:16.162881024,-0.023940429687499997,-0.22025195312499998,10.189046874999999,0.0,0.0,0.0,358.7523670886127,0.2744685497987079,54.68347441762765
2026-09-28 19:09:16.162881024,-0.01675830078125,-0.20588769531249998,10.189046874999999,0.0,-0.0010652644360316954,0.0,358.7517708687572,0.2741202242039971,54.68333566163642
2026-09-28 19:09:16.178497024,-0.0335166015625,-0.26095068359374995,10.138771972656249,0.0,0.0,0.0,358.75225318481347,0.2738117245387084,54.68319770069944
2026-09-28 19:09:16.178497024,-0.035910644531249994,-0.26334472656249996,10.217775390624999,0.0,0.0,0.0,358.7521558271982,0.2733073572391083,54.68367519844861
2026-09-28 19:09:16.196311296,-0.026334472656249996,-0.21067578124999997,10.184258789062499,0.0,-0.0010652644360316954,0.0,358.7516999288923,0.2729133142345627,54.683847392069936
2026-09-28 19:09:16.209819904,-0.067033203125,-0.1963115234375,10.22016943359375,0.0,-0.0010652644360316954,0.0,358.7512390178024,0.27265408855792495,54.68401453147833
2026-09-28 19:09:16.225611520,-0.0335166015625,-0.22025195312499998,10.14356005859375,0.0,0.0,0.0,358.7512151756424,0.27226223309059083,54.68357867013017
2026-09-28 19:09:16.225611520,-0.0143642578125,-0.23461621093749999,10.198623046875,0.0,0.0,0.0,358.75092355092943,0.27262144515160375,54.683426663208074
2026-09-28 19:09:16.241080320,-0.059851074218749994,-0.23222216796874998,10.172288574218749,0.0,-0.0010652644360316954,0.0,358.7512699536059,0.27213098047965256,54.68329462073408
2026-09-28 19:09:16.241080320,-0.0383046875,-0.25616259765625,10.212987304687498,0.0,0.0,0.0,358.75127850620817,0.2723425058989456,54.68314918436119
2026-09-28 19:09:16.256911872,-0.0335166015625,-0.24179833984375,10.150742187499999,0.0,0.0,0.0,358.7510707519857,0.2728201290965855,54.683606271805914
2026-09-28 19:09:16.272340224,-0.00239404296875,-0.23940429687499998,10.179470703124998,0.0,0.0,0.0,358.75055638339404,0.2724355938437326,54.683466434425526
2026-09-28 19:09:16.272340224,-0.05027490234375,-0.22743408203124998,10.2417158203125,0.0010652644360316954,0.0010652644360316954,0.0,358.7509676095055,0.2729410756725892,54.68330662354155
2026-09-28 19:09:16.287988480,-0.04069873046875,-0.25616259765625,10.239321777343749,-0.0010652644360316954,-0.0010652644360316954,0.0,358.750411769279,0.27289120596968597,54.68347304339272
2026-09-28 19:09:16.305082624,-0.05027490234375,-0.24419238281249997,10.141166015624998,0.0,0.0,0.0,358.75098415901186,0.27293450771308386,54.68363896562487
2026-09-28 19:09:16.305082624,-0.0047880859375,-0.24419238281249997,10.160318359375,0.0,0.0,0.0,358.75066211472125,0.2731673661179103,54.68379844366827
2026-09-28 19:09:16.320978176,-0.067033203125,-0.1963115234375,10.172288574218749,0.0,0.0,0.0010652644360316954,358.75048044169034,0.272908966118884,54.684575533801
2026-09-28 19:09:16.320978176,-0.01675830078125,-0.20588769531249998,10.229745605468748,0.0,0.0,-0.0010652644360316954,358.75049322601376,0.2735512819617308,54.68411977639725
2026-09-28 19:09:16.336312064,-0.0143642578125,-0.23701025390624997,10.122013671875,0.0,0.0,0.0,358.750458393126,0.27370181034896807,54.68366376980729
2026-09-28 19:09:16.352535296,-0.026334472656249996,-0.23222216796874998,10.229745605468748,0.0,0.0,0.0,358.7505649586989,0.2733231246321577,54.683830519842054
2026-09-28 19:09:16.352535296,-0.04548681640625,-0.21067578124999997,10.21538134765625,0.0,-0.0010652644360316954,0.0010652644360316954,358.7511857726656,0.2725652779302043,54.68430861226699
2026-09-28 19:09:16.368050944,-0.0909736328125,-0.24419238281249997,10.1651064453125,0.0,0.0,0.0,358.7513044022499,0.2723771822562107,54.68417034262982
2026-09-28 19:09:16.383857152,-0.0335166015625,-0.23940429687499998,10.14356005859375,0.0,0.0,0.0010652644360316954,358.75054138365607,0.2723832514901799,54.68433593378509
2026-09-28 19:09:16.383857152,-0.05745703125,-0.23940429687499998,10.14834814453125,0.0,-0.0010652644360316954,0.0,358.75049951550034,0.27207349906411543,54.68450198340828
2026-09-28 19:09:16.399312896,-0.035910644531249994,-0.25137451171874997,10.145954101562499,0.0,0.0,0.0,358.750145868293,0.2722893220719239,54.68435626517875
2026-09-28 19:09:16.399312896,-0.035910644531249994,-0.22025195312499998,10.22016943359375,0.0,0.0,0.0,358.750221225221,0.27198512416174614,54.684826586896634
2026-09-28 19:09:16.414936576,-0.0622451171875,-0.24658642578124998,10.141166015624998,0.0,0.0,0.0,358.7503180499818,0.27195161023278247,54.68559679507084
2026-09-28 19:09:16.446188032,0.0,-0.21785791015624997,10.1746826171875,0.0,-0.0010652644360316954,0.0010652644360316954,358.7498699295626,0.2718601563704805,54.68607423613582
2026-09-28 19:09:16.446188032,-0.0622451171875,-0.22025195312499998,10.184258789062499,0.0,0.0,0.0,358.74885122194,0.27232661073664555,54.685914904097274
2026-09-28 19:09:16.477447936,-0.09336767578124999,-0.23222216796874998,10.212987304687498,0.0,0.0,-0.0010652644360316954,358.74836717015785,0.272233203353824,54.68516655222745
2026-09-28 19:09:16.477447936,-0.043092773437499995,-0.20349365234374997,10.162712402343749,0.0,0.0,0.0,358.7481092482351,0.27259117125939214,54.685021213825245
2026-09-28 19:09:16.493071360,-0.0335166015625,-0.22264599609375,10.1938349609375,0.0,0.0,0.0,358.7481268165808,0.2723736042314314,54.685187495946714
2026-09-28 19:09:16.493071360,-0.059851074218749994,-0.19152343749999998,10.18665283203125,0.0,0.0,0.0,358.74790632826273,0.27232603737639205,54.68534738619675
2026-09-28 19:09:16.493071360,-0.023940429687499997,-0.201099609375,10.212987304687498,0.0,-0.0010652644360316954,0.0,358.7481576198704,0.27206716529216873,54.685514926929066
2026-09-28 19:09:16.493071360,-0.08618554687499999,-0.24419238281249997,10.217775390624999,0.0,0.0,0.0010652644360316954,358.74781478655524,0.2722467305627978,54.68628603554376
2026-09-28 19:09:16.508851200,-0.021546386718749998,-0.23461621093749999,10.157924316406248,0.0,0.0,0.0,358.74739966342685,0.27217375628877627,54.68584159022539
2026-09-28 19:09:16.527186944,-0.035910644531249994,-0.21785791015624997,10.172288574218749,0.0,-0.0010652644360316954,0.0,358.7472068334497,0.27149929874929524,54.685710035564085
2026-09-28 19:09:16.530766592,-0.07182128906249999,-0.22743408203124998,10.21538134765625,0.0,0.0,0.0,358.74688869458595,0.2717594678789809,54.685869554122824
2026-09-28 19:09:16.539555072,-0.043092773437499995,-0.201099609375,10.17707666015625,0.0,0.0,0.0,358.7467199127308,0.27203768982140425,54.68572332180465
2026-09-28 19:09:16.539555072,-0.07421533203125,-0.20588769531249998,10.1938349609375,0.0,0.0,0.0,358.7472119008686,0.272064769394767,54.68619559883177
2026-09-28 19:09:16.555193088,-0.03112255859375,-0.17955322265624998,10.198623046875,0.0,0.0,0.0,358.74743791932644,0.2725811358719035,54.68605118379801
2026-09-28 19:09:16.570831104,-0.01915234375,-0.2154638671875,10.150742187499999,0.0,0.0,0.0,358.74746748351646,0.27292411060016786,54.68590067925392
2026-09-28 19:09:16.571664640,-0.047880859374999994,-0.24658642578124998,10.17707666015625,0.0,-0.0010652644360316954,0.0010652644360316954,358.7472264491886,0.272128924091658,54.68637899707034
2026-09-28 19:09:16.586737152,-0.05745703125,-0.22504003906249997,10.172288574218749,0.0,-0.0010652644360316954,0.0,358.7466765299059,0.27134233111811157,54.686552275778205
2026-09-28 19:09:16.602434560,-0.08857958984374999,-0.201099609375,10.145954101562499,0.0,0.0,0.0,358.7465429382778,0.2714162370539379,54.686109244836665
2026-09-28 19:09:16.602434560,0.00718212890625,-0.19152343749999998,10.18665283203125,0.0,0.0,0.0,358.7463205196462,0.27166454875029744,54.68565905429891
2026-09-28 19:09:16.618144512,-0.0813974609375,-0.24419238281249997,10.160318359375,-0.0010652644360316954,-0.0010652644360316954,0.0,358.74605481280554,0.2708709913009939,54.68552850047691
2026-09-28 19:09:16.618144512,-0.07421533203125,-0.27531494140624996,10.160318359375,0.0,0.0,0.0,358.74656146032856,0.2702174460468931,54.685707641313826
2026-09-28 19:09:16.633785344,-0.05027490234375,-0.21067578124999997,10.18665283203125,0.0,0.0,0.0,358.7460655834071,0.27016255244062404,54.68526282881124
2026-09-28 19:09:16.649261312,-0.00239404296875,-0.19152343749999998,10.17707666015625,0.0,0.0,0.0,358.74653466287407,0.27031880035191835,54.68542326512116
2026-09-28 19:09:16.649261312,-0.026334472656249996,-0.22743408203124998,10.217775390624999,0.0,0.0,0.0,358.74699560614187,0.2705488927292396,54.68527332114744
2026-09-28 19:09:16.665031424,-0.04548681640625,-0.21306982421874998,10.167500488281249,0.0,-0.0010652644360316954,0.0,358.7470398973079,0.26998120213499954,54.68514280061564
2026-09-28 19:09:16.665031424,-0.059851074218749994,-0.21067578124999997,10.172288574218749,0.0,0.0,0.0010652644360316954,358.7466809521596,0.2697612813751161,54.68561545385239
2026-09-28 19:09:16.696344320,-0.023940429687499997,-0.25137451171874997,10.122013671875,0.0,0.0,0.0,358.7467840477137,0.2698333277990356,54.68547044958828
2026-09-28 19:09:16.696344320,-0.0335166015625,-0.20588769531249998,10.184258789062499,0.0,0.0,0.0,358.7471126296957,0.26960045527212934,54.685331798544205
2026-09-28 19:09:16.714304256,-0.047880859374999994,-0.24658642578124998,10.2034111328125,0.0,-0.0010652644360316954,0.0,358.74682068989586,0.26911493556020916,54.68519964083832
2026-09-28 19:09:16.714304256,-0.021546386718749998,-0.21785791015624997,10.133983886718749,0.0,0.0,0.0,358.74666106494624,0.26918778881472694,54.68505490867966
2026-09-28 19:09:16.727959040,0.00239404296875,-0.20349365234374997,10.189046874999999,0.0,0.0,0.0010652644360316954,358.7468098347784,0.26982426520581554,54.68581205236665
2026-09-28 19:09:16.727959040,-0.043092773437499995,-0.22504003906249997,10.133983886718749,0.0,0.0,0.0,358.747263855975,0.2697891025732741,54.68566732136563
2026-09-28 19:09:16.743808256,-0.0383046875,-0.229828125,10.162712402343749,0.0,0.0,0.0,358.7473061307278,0.27057813565721733,54.6855087360666
2026-09-28 19:09:16.759256320,-0.021546386718749998,-0.26095068359374995,10.162712402343749,0.0,0.0,-0.0010652644360316954,358.7460943703183,0.27107942573216015,54.685044765206655
2026-09-28 19:09:16.759256320,-0.055062988281249996,-0.20828173828125,10.21538134765625,0.0,0.0,0.0,358.74567082101,0.2708632551827412,54.68460034285407
2026-09-28 19:09:16.774855424,-0.05745703125,-0.22743408203124998,10.157924316406248,0.0,0.0,0.0,358.7457129697688,0.27072010421713677,54.68446170517415
2026-09-28 19:09:16.790479872,-0.0143642578125,-0.21067578124999997,10.189046874999999,0.0,0.0,0.0,358.7450368573596,0.271299518803787,54.68400412394348
2026-09-28 19:09:16.806245888,-0.047880859374999994,-0.229828125,10.18186474609375,0.0,-0.0010652644360316954,0.0,358.7449732219043,0.27105667378544296,54.684171463975154
2026-09-28 19:09:16.806245888,-0.055062988281249996,-0.22025195312499998,10.19144091796875,0.0,0.0,0.0,358.7448643219827,0.27150404384932364,54.68371519452934
2026-09-28 19:09:16.844613120,-0.01675830078125,-0.27052685546875,10.167500488281249,-0.0010652644360316954,-0.0010652644360316954,0.0,358.74419648399345,0.2712066693740453,54.68388116843947
2026-09-28 19:09:16.871634176,-0.0047880859375,-0.21785791015624997,10.133983886718749,-0.0010652644360316954,-0.0010652644360316954,0.0010652644360316954,358.7436358591577,0.2709906037049404,54.68464976687333
2026-09-28 19:09:16.871634176,-0.0335166015625,-0.20828173828125,10.18665283203125,0.0,0.0,0.0,358.74351649070786,0.27057128580368406,54.684505154735
2026-09-28 19:09:16.877790464,-0.0335166015625,-0.22504003906249997,10.198623046875,0.0,0.0,0.0,358.74340196041993,0.27084717328934327,54.684665663100965
2026-09-28 19:09:16.887727104,-0.035910644531249994,-0.201099609375,10.196229003906248,0.0,0.0,0.0,358.74323220835646,0.2702547389790909,54.68453419444597
2026-09-28 19:09:16.888871424,-0.026334472656249996,-0.23701025390624997,10.15313623046875,-0.0010652644360316954,0.0,0.0,358.7428814805602,0.26999359030188713,54.684396698935444
2026-09-28 19:09:16.889924352,-0.00239404296875,-0.25616259765625,10.162712402343749,0.0,0.0,0.0,358.7425292221162,0.27006498642152066,54.68425093301847
2026-09-28 19:09:16.892935424,-0.0335166015625,-0.23222216796874998,10.133983886718749,0.0,0.0,-0.0010652644360316954,358.74239714468536,0.270157734693813,54.68379294818581
2026-09-28 19:09:16.901581568,-0.011970214843749999,-0.22264599609375,10.150742187499999,-0.0010652644360316954,0.0,0.0010652644360316954,358.74166864616654,0.27004543503575085,54.68425712380178
2026-09-28 19:09:16.901581568,-0.05027490234375,-0.201099609375,10.1651064453125,0.0,0.0,0.0,358.74109212356166,0.27017035878159895,54.684105120768386
2026-09-28 19:09:16.917329920,-0.03112255859375,-0.20828173828125,10.179470703124998,0.0,0.0,0.0,358.74090150867494,0.27053296402761345,54.683953465161636
2026-09-28 19:09:16.917329920,-0.043092773437499995,-0.20349365234374997,10.172288574218749,0.0,-0.0010652644360316954,0.0,358.7411108105579,0.2702580882190626,54.6838155963985
2026-09-28 19:09:16.932941568,-0.0383046875,-0.24179833984375,10.17707666015625,0.0,-0.0021305288720633907,0.0,358.74108851019207,0.2697130099852385,54.68399651339026
2026-09-28 19:09:16.948609792,-0.01915234375,-0.23222216796874998,10.150742187499999,0.0,0.0,0.0,358.7410591526439,0.2705602094693871,54.684142496972605
2026-09-28 19:09:16.964247808,-0.028728515625,-0.22264599609375,10.157924316406248,0.0,0.0,0.0,358.74065439574144,0.27049185753283334,54.683691543347074
2026-09-28 19:09:16.964247808,-0.055062988281249996,-0.20828173828125,10.189046874999999,0.0,0.0,0.0,358.74034412995127,0.27037128551023165,54.68385099144687
2026-09-28 19:09:16.984499968,-0.07900341796874999,-0.23701025390624997,10.189046874999999,0.0,0.0,0.0,358.74021133941426,0.270289316915521,54.68401136621373
2026-09-28 19:09:16.986132992,-0.035910644531249994,-0.24898046875,10.133983886718749,0.0,0.0,0.0010652644360316954,358.7402512237002,0.27022086787809124,54.68478808626116
2026-09-28 19:09:16.996081920,-0.043092773437499995,-0.21067578124999997,10.179470703124998,0.0,0.0,0.0,358.7400686756265,0.26999575961739447,54.68495345153395
2026-09-28 19:09:17.011638272,-0.047880859374999994,-0.23701025390624997,10.172288574218749,0.0,0.0,0.0,358.7398528292248,0.26972973216757623,54.68512005209243
2026-09-28 19:09:17.025325056,-0.05266894531249999,-0.22264599609375,10.2034111328125,0.0,0.0,0.0,358.7395582326614,0.270026513156658,54.68497456657117
2026-09-28 19:09:17.029994240,-0.026334472656249996,-0.22264599609375,10.189046874999999,0.0,0.0,0.0,358.7396000387872,0.26979846300603727,54.684530887082325
2026-09-28 19:09:17.035131904,-0.026334472656249996,-0.24179833984375,10.145954101562499,0.0,0.0,0.0,358.739365743818,0.2701881056214724,54.68498921877179
2026-09-28 19:09:17.043347200,-0.028728515625,-0.23461621093749999,10.18186474609375,0.0,0.0,0.0,358.7382754895334,0.2709621043371513,54.68482942804932
2026-09-28 19:09:17.059105792,-0.047880859374999994,-0.22264599609375,10.179470703124998,0.0,-0.0010652644360316954,0.0,358.73785563579725,0.2705670195944327,54.684690157865155
2026-09-28 19:09:17.059105792,-0.067033203125,-0.20349365234374997,10.196229003906248,0.0,0.0,0.0,358.73813686037045,0.26984154031837654,54.684564659277
2026-09-28 19:09:17.074618624,-0.07182128906249999,-0.229828125,10.145954101562499,0.0,0.0,0.0,358.7389230443119,0.269750298539979,54.68442810387308
2026-09-28 19:09:17.090240000,-0.04548681640625,-0.229828125,10.1938349609375,-0.0010652644360316954,-0.0010652644360316954,0.0,358.73815187158283,0.2697359873181349,54.68459506467595
2026-09-28 19:09:17.090240000,-0.08379150390625,-0.21067578124999997,10.18665283203125,0.0,0.0010652644360316954,0.0010652644360316954,358.73851283856874,0.26982884639469396,54.68536504221836
2026-09-28 19:09:17.105940736,-0.05027490234375,-0.22264599609375,10.17707666015625,0.0,0.0,0.0,358.7380556863653,0.26993908965752417,54.68583726129792
2026-09-28 19:09:17.121786112,-0.09815576171875,-0.22743408203124998,10.129195800781249,0.0,0.0,0.0010652644360316954,358.7379004409896,0.2699177277052932,54.68630934624297
2026-09-28 19:09:17.121786112,-0.01915234375,-0.2154638671875,10.1363779296875,0.0,0.0,0.0,358.7386965597537,0.26980889982948636,54.68587304103102
2026-09-28 19:09:17.137448448,-0.06463916015625,-0.20349365234374997,10.150742187499999,0.0,0.0,0.0,358.73919538048455,0.269397638291536,54.6854300881682
2026-09-28 19:09:17.137448448,-0.01675830078125,-0.23940429687499998,10.196229003906248,0.0,0.0,0.0,358.7391503227216,0.2699154390496755,54.68558412385255
2026-09-28 19:09:17.153189120,-0.06942724609374999,-0.23222216796874998,10.14356005859375,0.0,0.0,0.0,358.7390691110612,0.2701075688583083,54.68604176222664
2026-09-28 19:09:17.184376320,-0.059851074218749994,-0.21785791015624997,10.14356005859375,0.0,0.0,0.0,358.73892970595665,0.2701601728002213,54.68620728075488
2026-09-28 19:09:17.184376320,-0.06463916015625,-0.24658642578124998,10.1938349609375,0.0,0.0,0.0,358.7388321290478,0.27087518457396437,54.68635440454255
2026-09-28 19:09:17.215936768,-0.05266894531249999,-0.25616259765625,10.167500488281249,0.0,0.0,0.0,358.7383973377741,0.27097784820103077,54.686513324191814
2026-09-28 19:09:17.215936768,-0.059851074218749994,-0.22504003906249997,10.155530273437499,0.0,0.0,0.0,358.73842105960136,0.2709223196198561,54.686679721674146
2026-09-28 19:09:17.241481984,-0.07900341796874999,-0.21785791015624997,10.18665283203125,0.0,0.0010652644360316954,0.0,358.73892051105145,0.27156970569735267,54.68683344435517
2026-09-28 19:09:17.247872512,-0.05266894531249999,-0.23222216796874998,10.217775390624999,0.0,0.0,0.0010652644360316954,358.7386332771954,0.2721941174875647,54.6872915117986
2026-09-28 19:09:17.248848384,-0.07182128906249999,-0.21306982421874998,10.150742187499999,0.0,-0.0010652644360316954,0.0,358.7390255846385,0.271663436781345,54.68777001915648
2026-09-28 19:09:17.248848384,-0.05745703125,-0.24419238281249997,10.11483154296875,0.0,0.0,0.0,358.73915025017885,0.2718652547961876,54.68762497185442
2026-09-28 19:09:17.248848384,-0.043092773437499995,-0.22025195312499998,10.15313623046875,0.0,0.0,0.0,358.7387980697878,0.27204728300357467,54.687784299239816
2026-09-28 19:09:17.263884288,-0.04548681640625,-0.21067578124999997,10.145954101562499,0.0,0.0,0.0,358.7391853731441,0.2722289820270845,54.6873341742959
2026-09-28 19:09:17.263884288,-0.026334472656249996,-0.19870556640624998,10.117225585937499,0.0,0.0,0.0,358.73941876177497,0.2730125454439078,54.68717625911688
2026-09-28 19:09:17.279665920,-0.0143642578125,-0.20828173828125,10.189046874999999,0.0,0.0010652644360316954,0.0,358.73935398262637,0.2733931406450328,54.687940422811344
2026-09-28 19:09:17.279665920,0.0047880859375,-0.201099609375,10.14356005859375,0.0,0.0,0.0,358.7398551761867,0.27298148154911145,54.68780256646443
2026-09-28 19:09:17.295222272,-0.059851074218749994,-0.25616259765625,10.157924316406248,0.0,0.0,0.0,358.7399281614977,0.27211367595005986,54.687365876051366
2026-09-28 19:09:17.310814720,-0.026334472656249996,-0.18673535156249998,10.22495751953125,0.0,0.0,0.0,358.73969255294475,0.272891263047301,54.68690076514707
2026-09-28 19:09:17.342028288,-0.04548681640625,-0.22504003906249997,10.19144091796875,0.0,-0.0010652644360316954,0.0,358.7399864231468,0.27269136916638037,54.687373466502834
2026-09-28 19:09:17.342028288,-0.026334472656249996,-0.23222216796874998,10.21538134765625,0.0,0.0,0.0,358.74014558521833,0.27248554453248414,54.68754042954803
2026-09-28 19:09:17.349455616,-0.055062988281249996,-0.24179833984375,10.19144091796875,0.0,0.0010652644360316954,0.0,358.74029512749837,0.27338003300515434,54.687680559329756
2026-09-28 19:09:17.357964288,-0.0143642578125,-0.18673535156249998,10.17707666015625,0.0,-0.0010652644360316954,0.0,358.7396029327053,0.2731722828177611,54.68723630485535
2026-09-28 19:09:17.357964288,-0.06463916015625,-0.22743408203124998,10.16989453125,0.0,0.0,0.0,358.7397441494089,0.27313834812414134,54.68678790396775
2026-09-28 19:09:17.373605376,-0.021546386718749998,-0.19870556640624998,10.14356005859375,0.0,-0.0010652644360316954,0.0,358.7394183946647,0.2730562839112404,54.687259219007714
2026-09-28 19:09:17.385989376,-0.011970214843749999,-0.21306982421874998,10.212987304687498,0.0,0.0010652644360316954,0.0,358.7394533113871,0.2736727394676493,54.686796858775125
2026-09-28 19:09:17.385989376,-0.059851074218749994,-0.24658642578124998,10.2034111328125,0.0,0.0,0.0,358.7402859932978,0.2735297081657446,54.68695733793132
2026-09-28 19:09:17.403320320,-0.01675830078125,-0.20588769531249998,10.1268017578125,0.0,0.0,0.0,358.73988795474304,0.2740177123028065,54.68680464580512
2026-09-28 19:09:17.403320320,-0.055062988281249996,-0.25137451171874997,10.2034111328125,0.0,0.0,0.0,358.7407027045065,0.2740096315798062,54.686965088257054
2026-09-28 19:09:17.420534016,-0.04548681640625,-0.229828125,10.217775390624999,0.0,0.0,0.0,358.73992042623877,0.27350960251200207,54.68713717829322
2026-09-28 19:09:17.434042624,-0.03112255859375,-0.229828125,10.157924316406248,0.0,0.0,0.0,358.7401612596073,0.273168737801566,54.68730986260006
2026-09-28 19:09:17.434042624,-0.0335166015625,-0.201099609375,10.196229003906248,0.0,0.0,0.0,358.7400286221084,0.27353177728831385,54.68746354020815
2026-09-28 19:09:17.450632704,-0.06942724609374999,-0.1963115234375,10.21538134765625,0.0,0.0,0.0,358.7405336537305,0.27334318121661466,54.68732568126994
2026-09-28 19:09:17.450632704,-0.05266894531249999,-0.23701025390624997,10.167500488281249,0.0,0.0,0.0,358.7409238103329,0.27371099704686097,54.687792138428165
2026-09-28 19:09:17.465763584,-0.04069873046875,-0.23461621093749999,10.157924316406248,0.0,-0.0021305288720633907,0.0,358.74070270277207,0.27329193791613055,54.687965407277055
2026-09-28 19:09:17.481556480,-0.04069873046875,-0.22743408203124998,10.179470703124998,0.0,0.0,0.0,358.7407095448958,0.2726491398416003,54.688138345429294
2026-09-28 19:09:17.481556480,0.00239404296875,-0.23701025390624997,10.217775390624999,0.0,0.0,0.0,358.7413246492296,0.27192103977872917,54.68800630021208
2026-09-28 19:09:17.497030144,-0.035910644531249994,-0.23461621093749999,10.1938349609375,0.0,0.0,0.0,358.7414544837092,0.271736903712228,54.687861438913465
2026-09-28 19:09:17.497030144,-0.035910644531249994,-0.2154638671875,10.155530273437499,-0.0010652644360316954,-0.0010652644360316954,0.0,358.74081350553183,0.2714792495589534,54.68741742412058
2026-09-28 19:09:17.517398528,-0.043092773437499995,-0.22743408203124998,10.201017089843749,0.0,0.0,0.0,358.74057820600547,0.2713301343865013,54.686967299109185
2026-09-28 19:09:17.528613376,-0.035910644531249994,-0.258556640625,10.150742187499999,0.0,0.0,0.0,358.741058470901,0.27137811057913863,54.68712765435171
2026-09-28 19:09:17.564322816,-0.047880859374999994,-0.22504003906249997,10.18186474609375,0.0,0.0,0.0,358.7407197632608,0.27129506188879243,54.686675525308274
2026-09-28 19:09:17.564322816,-0.05027490234375,-0.2154638671875,10.16989453125,0.0,-0.0010652644360316954,0.0,358.7407422467468,0.2707845174739737,54.68684867142243
2026-09-28 19:09:17.591273216,-0.01915234375,-0.24419238281249997,10.205805175781249,0.0,0.0,-0.0010652644360316954,358.7405104590096,0.2706154027463459,54.686100001891795
2026-09-28 19:09:17.591273216,-0.023940429687499997,-0.22264599609375,10.1938349609375,0.0,-0.0010652644360316954,0.0,358.7402507094263,0.27020673003157036,54.685959938398135
2026-09-28 19:09:17.591273216,-0.047880859374999994,-0.24898046875,10.20819921875,0.0,0.0,0.0,358.74034343994015,0.27019737678145095,54.68581484625641
2026-09-28 19:09:17.606749696,-0.08618554687499999,-0.20588769531249998,10.2034111328125,-0.0010652644360316954,0.0,0.0,358.7394244738835,0.2704122437690558,54.68627945382602
2026-09-28 19:09:17.606749696,-0.0622451171875,-0.24419238281249997,10.15313623046875,0.0,0.0,0.0,358.73948433717544,0.2704874944772874,54.68644602388879
2026-09-28 19:09:17.606749696,-0.059851074218749994,-0.20349365234374997,10.16989453125,0.0,0.0,0.0,358.73950118265435,0.27082424433354435,54.68630064258506
2026-09-28 19:09:17.606749696,-0.04548681640625,-0.2537685546875,10.162712402343749,0.0,-0.0010652644360316954,0.0,358.7399606006048,0.2707676144195383,54.685857487113715
2026-09-28 19:09:17.622379008,-0.023940429687499997,-0.21067578124999997,10.167500488281249,0.0,0.0,0.0010652644360316954,358.74019539050107,0.2701957026031156,54.68603015490114
2026-09-28 19:09:17.638003712,-0.043092773437499995,-0.22504003906249997,10.20819921875,0.0,0.0,0.0,358.74047170360865,0.2702205909271925,54.68619097734043
2026-09-28 19:09:17.638003712,-0.0143642578125,-0.20588769531249998,10.222563476562499,0.0,0.0,0.0,358.74089401090123,0.27074169337636966,54.686039320383955
2026-09-28 19:09:17.653761536,-0.06942724609374999,-0.21306982421874998,10.167500488281249,-0.0010652644360316954,0.0,0.0,358.7406491587327,0.27101786193690297,54.68619389814771
2026-09-28 19:09:17.669415936,-0.059851074218749994,-0.22504003906249997,10.18186474609375,0.0,0.0,0.0,358.74051415932564,0.271139732004097,54.68604920186961
2026-09-28 19:09:17.674787328,-0.0383046875,-0.23222216796874998,10.1938349609375,-0.0010652644360316954,0.0,0.0010652644360316954,358.74007864782374,0.2713010591241839,54.68651465049864
2026-09-28 19:09:17.685425152,-0.043092773437499995,-0.19391748046875,10.2034111328125,0.0,0.0021305288720633907,0.0,358.7406438919982,0.27237503828384957,54.68635019110269
2026-09-28 19:09:17.701070080,-0.043092773437499995,-0.26095068359374995,10.1363779296875,0.0,0.0,0.0,358.74058476556576,0.27289866540422875,54.68589399116288
2026-09-28 19:09:17.701070080,-0.05745703125,-0.24419238281249997,10.1938349609375,0.0,0.0,-0.0010652644360316954,358.74050412910134,0.2727208226487812,54.685449630734986
2026-09-28 19:09:17.719336192,-0.06942724609374999,-0.22743408203124998,10.179470703124998,0.0,0.0,0.0,358.7401450106554,0.27239501879649486,54.68500545993638
2026-09-28 19:09:17.719336192,-0.011970214843749999,-0.229828125,10.201017089843749,0.0,0.0,0.0,358.7397774463572,0.27290353435484593,54.68454778006247
2026-09-28 19:09:17.732988416,-0.043092773437499995,-0.23461621093749999,10.14356005859375,0.0,0.0,0.0,358.74008520214517,0.27314128758315476,54.68501242028419
2026-09-28 19:09:17.748762112,-0.0335166015625,-0.20588769531249998,10.1268017578125,0.0,0.0,0.0010652644360316954,358.74041125855274,0.2734729449441961,54.685470440866666
2026-09-28 19:09:17.748762112,-0.07421533203125,-0.20828173828125,10.21538134765625,0.0,0.0,0.0,358.74056099965617,0.2743868650926307,54.68531216203209
2026-09-28 19:09:17.764253696,-0.026334472656249996,-0.20828173828125,10.117225585937499,0.0,0.0,-0.0010652644360316954,358.74115790768514,0.2739303740168333,54.68457126157824
2026-09-28 19:09:17.781299712,-0.01915234375,-0.24658642578124998,10.2034111328125,0.0,0.0,0.0,358.7412220111102,0.27431459264257196,54.6844208420986
2026-09-28 19:09:17.781299712,-0.05027490234375,-0.20588769531249998,10.141166015624998,0.0,-0.0010652644360316954,0.0010652644360316954,358.7411416091195,0.2739004267559941,54.68489180571902
2026-09-28 19:09:17.795952128,-0.026334472656249996,-0.24898046875,10.179470703124998,0.0,0.0,0.0,358.74154064222176,0.2736531893037635,54.684455197161036
2026-09-28 19:09:17.795952128,-0.055062988281249996,-0.21306982421874998,10.122013671875,0.0,0.0,0.0,358.74109542595454,0.2739012136226125,54.68491923690324
2026-09-28 19:09:17.811741696,-0.0813974609375,-0.18434130859374998,10.201017089843749,0.0,-0.0010652644360316954,0.0,358.7411421175789,0.27381890479817794,54.684780618528386
2026-09-28 19:09:17.827235328,-0.043092773437499995,-0.258556640625,10.157924316406248,-0.0010652644360316954,0.0,0.0,358.7408216262779,0.27373592030009897,54.684643238285716
2026-09-28 19:09:17.842979584,-0.05266894531249999,-0.2154638671875,10.222563476562499,0.0,-0.0010652644360316954,0.0010652644360316954,358.74036721872267,0.2740183718085804,54.684802139074236
2026-09-28 19:09:17.842979584,-0.00239404296875,-0.1963115234375,10.150742187499999,0.0,0.0,0.0,358.74009234879065,0.2744515722869394,54.684650085067474
2026-09-28 19:09:17.861067008,-0.04069873046875,-0.22264599609375,10.145954101562499,0.0,0.0,0.0,358.7403786524076,0.2737990986922972,54.68451935230621
2026-09-28 19:09:17.861067008,-0.03112255859375,-0.22264599609375,10.117225585937499,0.0,0.0,0.0,358.740807207085,0.27333366530832104,54.68438779254451
2026-09-28 19:09:17.874590720,-0.07182128906249999,-0.25137451171874997,10.184258789062499,0.0,0.0,0.0,358.7410006341321,0.27319363587069617,54.68455492127303
2026-09-28 19:09:17.891760128,-0.043092773437499995,-0.20828173828125,10.167500488281249,0.0,-0.0010652644360316954,0.0010652644360316954,358.74099236626245,0.27334317113469464,54.6853314854771
2026-09-28 19:09:17.891760128,-0.04069873046875,-0.23701025390624997,10.16989453125,0.0,0.0,0.0,358.7414506977369,0.2728384284466685,54.685200084230026
2026-09-28 19:09:17.926962176,-0.047880859374999994,-0.2154638671875,10.18665283203125,0.0010652644360316954,0.0,0.0010652644360316954,358.74250869385736,0.27261285683852965,54.685672238661816
2026-09-28 19:09:17.926962176,-0.0622451171875,-0.24419238281249997,10.20819921875,0.0,0.0,0.0,358.74263353504335,0.27234776370141567,54.685533930870655
2026-09-28 19:09:17.943517696,-0.04069873046875,-0.1963115234375,10.14834814453125,0.0,0.0,0.0,358.7436444032011,0.2727065396327829,54.68538218198817
2026-09-28 19:09:17.959142144,-0.026334472656249996,-0.23222216796874998,10.18186474609375,0.0,0.0,-0.0010652644360316954,358.7435417170451,0.27250047864369176,54.68493927044003
2026-09-28 19:09:17.959142144,-0.047880859374999994,-0.21785791015624997,10.212987304687498,0.0,0.0,0.0010652644360316954,358.74367359670697,0.2723279006579956,54.68540466959432
2026-09-28 19:09:17.974905088,-0.035910644531249994,-0.23940429687499998,10.18665283203125,0.0,0.0,0.0010652644360316954,358.7437495769646,0.2723279225462767,54.68586963187913
2026-09-28 19:09:17.990407424,-0.06463916015625,-0.22743408203124998,10.22016943359375,0.0,0.0,0.0010652644360316954,358.74355855698786,0.27236769247692894,54.68634148973452
2026-09-28 19:09:17.990407424,-0.0335166015625,-0.24898046875,10.14834814453125,0.0,0.0,0.0010652644360316954,358.74350443378546,0.27255249472925214,54.686805956779814
2026-09-28 19:09:17.999325696,-0.04548681640625,-0.24898046875,10.17707666015625,0.0,0.0,0.0010652644360316954,358.742224455778,0.2728646551200194,54.6875755209634
2026-09-28 19:09:18.003301888,-0.03112255859375,-0.2154638671875,10.141166015624998,0.0,0.0,0.0,358.74229385453395,0.2729771680734457,54.68712387604124
2026-09-28 19:09:18.006140416,-0.01915234375,-0.22264599609375,10.124407714843748,-0.0010652644360316954,-0.0010652644360316954,0.0,358.74173412053375,0.2728780374066516,54.686680302395175
2026-09-28 19:09:18.021902336,-0.076609375,-0.25137451171874997,10.160318359375,0.0,-0.0010652644360316954,0.0,358.7415197969593,0.2729260606546671,54.686840355683586
2026-09-28 19:09:18.024705792,-0.043092773437499995,-0.23701025390624997,10.141166015624998,0.0,0.0,0.0,358.7410844465288,0.2732637847636094,54.686389219872794
2026-09-28 19:09:18.037717248,-0.04069873046875,-0.229828125,10.21059326171875,0.0,0.0,0.0010652644360316954,358.7408232763529,0.27331043901027,54.68654908716101
2026-09-28 19:09:18.037717248,-0.076609375,-0.22743408203124998,10.17707666015625,0.0,-0.0010652644360316954,0.0,358.74070615340344,0.273022078587204,54.68610614134175
2026-09-28 19:09:18.054192384,-0.05745703125,-0.229828125,10.18186474609375,0.0,0.0,0.0,358.74052782888174,0.2738487188025877,54.68564940858693
2026-09-28 19:09:18.069209088,-0.035910644531249994,-0.20828173828125,10.160318359375,0.0,-0.0031957933080950856,0.0010652644360316954,358.7406768048012,0.2732081017153682,54.686134921289245
2026-09-28 19:09:18.069209088,-0.0335166015625,-0.25616259765625,10.145954101562499,-0.0010652644360316954,0.0,0.0,358.74000470258073,0.27380395860904955,54.68598377756067
2026-09-28 19:09:18.084849152,-0.055062988281249996,-0.2154638671875,10.222563476562499,0.0,0.0010652644360316954,0.0010652644360316954,358.7402514127873,0.27400900081270196,54.68675333489752
2026-09-28 19:09:18.103445248,-0.03112255859375,-0.22025195312499998,10.167500488281249,0.0,0.0,0.0,358.74035253623896,0.2741225460116322,54.68660830086868
2026-09-28 19:09:18.106429696,-0.0143642578125,-0.23222216796874998,10.15313623046875,-0.0010652644360316954,0.0,0.0,358.73985715122666,0.27400744668074384,54.68677504588708
2026-09-28 19:09:18.116597760,-0.03112255859375,-0.18912939453125,10.189046874999999,-0.0010652644360316954,0.0,-0.0010652644360316954,358.7392659203188,0.2740650999151128,54.686326004361085
2026-09-28 19:09:18.132240896,-0.023940429687499997,-0.20828173828125,10.18665283203125,0.0,-0.0010652644360316954,0.0,358.7397615104423,0.27378202576767,54.68618811302617
2026-09-28 19:09:18.132240896,-0.0622451171875,-0.26573876953125,10.25847412109375,0.0,0.0,0.0010652644360316954,358.73948899350023,0.27388489915732217,54.68665288694997
2026-09-28 19:09:18.147871488,-0.028728515625,-0.22025195312499998,10.17707666015625,0.0,0.0,0.0,358.7390247280981,0.2740983256196293,54.6868116602688
2026-09-28 19:09:18.147871488,0.0,-0.22743408203124998,10.1746826171875,0.0021305288720633907,0.0010652644360316954,0.0,358.7406324793845,0.27435390967595336,54.686966314300214
2026-09-28 19:09:18.163639808,-0.00239404296875,-0.23701025390624997,10.246503906249998,0.0,0.0,0.0,358.74063532296884,0.27429772313910294,54.68742428389839
2026-09-28 19:09:18.179113216,-0.04548681640625,-0.26095068359374995,10.138771972656249,0.0,0.0,0.0010652644360316954,358.7406262320648,0.27408209938366945,54.687888890417305
2026-09-28 19:09:18.179113216,-0.04548681640625,-0.22504003906249997,10.14834814453125,0.0,0.0,0.0,358.7396787138243,0.27406062913399604,54.68804829710506
2026-09-28 19:09:18.201062912,-0.026334472656249996,-0.25137451171874997,10.14356005859375,0.0,0.0,0.0,358.7391118030499,0.27466889731455835,54.68789633715364
2026-09-28 19:09:18.211340032,-0.059851074218749994,-0.2154638671875,10.196229003906248,0.0,-0.0010652644360316954,0.0010652644360316954,358.73876681606765,0.2746653107503305,54.68836082501829
2026-09-28 19:09:18.218017280,-0.055062988281249996,-0.23461621093749999,10.19144091796875,0.0,0.0010652644360316954,0.0,358.7387982624247,0.27537555028940536,54.68820875123485
2026-09-28 19:09:18.229388288,-0.047880859374999994,-0.21785791015624997,10.160318359375,0.0,-0.0010652644360316954,0.0,358.7384195929285,0.27491156875319384,54.688381399019704
2026-09-28 19:09:18.243051520,-0.07421533203125,-0.19870556640624998,10.179470703124998,0.0,0.0,0.0,358.73798176420075,0.2758152831114546,54.68852830229447
2026-09-28 19:09:18.243051520,-0.023940429687499997,-0.18912939453125,10.160318359375,0.0,0.0,0.0,358.7373320779616,0.2761604226560289,54.68868758583712
2026-09-28 19:09:18.258916608,-0.03112255859375,-0.24179833984375,10.236927734375,0.0,0.0,0.0,358.73791735135933,0.27628613354991977,54.68854336878866
2026-09-28 19:09:18.258916608,-0.043092773437499995,-0.24179833984375,10.129195800781249,0.0,-0.0010652644360316954,0.0,358.7380878626984,0.2760583254045957,54.68870893635196
2026-09-28 19:09:18.290070528,-0.05027490234375,-0.20588769531249998,10.167500488281249,0.0,-0.0010652644360316954,0.0,358.73813438165274,0.27619143464247903,54.68825858598797
2026-09-28 19:09:18.321205504,-0.043092773437499995,-0.22264599609375,10.189046874999999,0.0,-0.0010652644360316954,0.0010652644360316954,358.73788463408766,0.27611104284961874,54.68842530861109
2026-09-28 19:09:18.338652416,-0.01915234375,-0.2154638671875,10.11004345703125,0.0,0.0,0.0010652644360316954,358.7380576085479,0.27543943495394896,54.68890421652362
2026-09-28 19:09:18.338652416,-0.06942724609374999,-0.22264599609375,10.18186474609375,0.0,0.0,0.0,358.7384297224181,0.27573486733258135,54.68844723301528
2026-09-28 19:09:18.353178112,-0.05027490234375,-0.21067578124999997,10.251291992187499,0.0,0.0,0.0,358.73853575198603,0.27628494504217926,54.68829541390921
2026-09-28 19:09:18.353178112,-0.026334472656249996,-0.20828173828125,10.18665283203125,0.0,0.0,0.0,358.73865142000335,0.27659965673746384,54.68784547116577
2026-09-28 19:09:18.353178112,-0.01915234375,-0.21306982421874998,10.160318359375,0.0,0.0,0.0,358.73858335195325,0.2774198848640887,54.68738111544212
2026-09-28 19:09:18.368828928,-0.06463916015625,-0.20349365234374997,10.14356005859375,0.0,0.0,0.0,358.73842226846295,0.2775495743589558,54.68693118993076
2026-09-28 19:09:18.368828928,-0.026334472656249996,-0.22504003906249997,10.212987304687498,0.0,-0.0021305288720633907,0.0,358.7384066496897,0.2775261684030583,54.68679379232215
2026-09-28 19:09:18.368828928,-0.04548681640625,-0.24419238281249997,10.141166015624998,-0.0010652644360316954,-0.0010652644360316954,0.0,358.7377328512095,0.27737716592164036,54.68695968142866
2026-09-28 19:09:18.368828928,-0.08857958984374999,-0.23461621093749999,10.2321396484375,0.0,0.0,0.0010652644360316954,358.73784054036395,0.27756125848508795,54.68772996675828
2026-09-28 19:09:18.384552704,-0.03112255859375,-0.2729208984375,10.18665283203125,0.0,0.0,0.0,358.73805466512283,0.2782643028427878,54.688189009078904
2026-09-28 19:09:18.384552704,-0.05266894531249999,-0.229828125,10.1651064453125,0.0,0.0,0.0,358.73711519610663,0.278412140846079,54.68804184753067
2026-09-28 19:09:18.416007168,-0.00718212890625,-0.22264599609375,10.184258789062499,0.0,0.0,0.0,358.73688307746056,0.27863829076458624,54.68789672715881
2026-09-28 19:09:18.416007168,-0.04548681640625,-0.21067578124999997,10.15313623046875,0.0,0.0,0.0,358.73703972406395,0.2782031399431278,54.68714841948184
2026-09-28 19:09:18.434621952,-0.043092773437499995,-0.24179833984375,10.1746826171875,0.0,0.0,0.0,358.7373273219326,0.27818671733501393,54.68669921055248
2026-09-28 19:09:18.434621952,-0.0143642578125,-0.25137451171874997,10.18186474609375,0.0,0.0,0.0,358.73757284093443,0.277998554913801,54.686255037531396
2026-09-28 19:09:18.452462592,-0.05745703125,-0.22025195312499998,10.167500488281249,-0.0010652644360316954,0.0,0.0,358.73741586334296,0.27774981903910384,54.686110198661204
2026-09-28 19:09:18.463982336,-0.009576171875,-0.24658642578124998,10.2321396484375,0.0,0.0,0.0,358.73754952277176,0.27746840056489397,54.686277133818095
2026-09-28 19:09:18.469264896,-0.026334472656249996,-0.2537685546875,10.129195800781249,0.0,-0.0010652644360316954,0.0,358.7375491183819,0.27723815659451767,54.686443392509375
