Timestamp,ax,ay,az,gx,gy,gz,roll,pitch,yaw
2026-09-29 19:22:13.278635520,0.00239404296875,-0.3064375,10.1651064453125,-0.0010652644360316954,0.0,0.0,358.8642454306155,0.2621752528658939,28.45839479152023
2026-09-29 19:22:13.278635520,0.023940429687499997,-0.29446728515625,10.124407714843748,0.0,0.0,0.0010652644360316954,358.86237386024374,0.26216165769888633,28.4586856959131
2026-09-29 19:22:13.278635520,0.021546386718749998,-0.25137451171874997,10.17707666015625,0.0,0.0,0.0,358.8612615465463,0.2614718523623081,28.458989376048994
2026-09-29 19:22:13.278635520,-0.04069873046875,-0.2681328125,10.1746826171875,0.0,0.0010652644360316954,0.0,358.86130762627477,0.2611682421571078,28.45867180131384
2026-09-29 19:22:13.278635520,-0.011970214843749999,-0.28489111328125,10.18186474609375,0.0,-0.0010652644360316954,0.0010652644360316954,358.86057058981504,0.26042605323255696,28.458981828294473
2026-09-29 19:22:13.295009024,-0.011970214843749999,-0.27531494140624996,10.15313623046875,-0.0010652644360316954,0.0,0.0010652644360316954,358.8593444755822,0.25982493060473694,28.459591477288882
2026-09-29 19:22:13.295009024,0.009576171875,-0.26573876953125,10.21538134765625,-0.0010652644360316954,-0.0010652644360316954,0.0,358.85790121521666,0.2592336839640697,28.45928626212369
2026-09-29 19:22:13.295009024,0.009576171875,-0.296861328125,10.1938349609375,0.0,0.0,0.0,358.8573723475122,0.2586881768319247,28.459279957575816
2026-09-29 19:22:13.295009024,0.0335166015625,-0.3112255859375,10.246503906249998,0.0,0.0,0.0010652644360316954,358.85623147594885,0.2580312827032872,28.45958351728698
2026-09-29 19:22:13.295009024,-0.0047880859375,-0.2537685546875,10.189046874999999,0.0,-0.0010652644360316954,0.0,358.8547842958491,0.2569304867688718,28.458977922033682
2026-09-29 19:22:13.295009024,0.021546386718749998,-0.2537685546875,10.25847412109375,-0.0010652644360316954,-0.0010652644360316954,0.0,358.853779232029,0.2557737175358983,28.45868557143287
2026-09-29 19:22:13.310012928,-0.00718212890625,-0.28728515624999995,10.29677880859375,0.0,0.0,0.0,358.85341129189544,0.25515376344714347,28.458684930026806
2026-09-29 19:22:13.310012928,-0.0047880859375,-0.29446728515625,10.2321396484375,0.0,0.0,0.0,358.8528082823072,0.25467370513603543,28.458373307964337
2026-09-29 19:22:13.310012928,-0.03112255859375,-0.29207324218749997,10.18665283203125,0.0,-0.0010652644360316954,0.0010652644360316954,358.8521875371301,0.25407583903681075,28.45867799647374
2026-09-29 19:22:13.311705600,0.00718212890625,-0.2681328125,10.217775390624999,0.0,-0.0010652644360316954,0.0,358.85119477622567,0.25380383027939024,28.45867715611625
2026-09-29 19:22:13.311705600,0.00718212890625,-0.28489111328125,10.20819921875,0.0,0.0,0.0,358.85072626127413,0.2537603354174267,28.458665051086182
2026-09-29 19:22:13.312706816,-0.01915234375,-0.28489111328125,10.18186474609375,0.0,0.0,0.0,358.85009675852103,0.2534302347385096,28.45835336167572
2026-09-29 19:22:13.313706496,0.0335166015625,-0.2729208984375,10.24889794921875,0.0,0.0,0.0,358.8490666345894,0.2532466215056262,28.458651522583207
2026-09-29 19:22:13.314706176,0.03112255859375,-0.2537685546875,10.2417158203125,0.0,0.0,0.0,358.8482951450046,0.25279816426677243,28.458340488240214
2026-09-29 19:22:13.314706176,0.023940429687499997,-0.28489111328125,10.201017089843749,0.0,0.0,0.0,358.8481387224679,0.2519320041918354,28.458340720785305
2026-09-29 19:22:13.314706176,-0.00718212890625,-0.27770898437499997,10.1938349609375,0.0,0.0,0.0,358.8465817701799,0.25153358286828525,28.45833392880894
2026-09-29 19:22:13.315706112,0.023940429687499997,-0.27770898437499997,10.21059326171875,0.0,0.0,0.0,358.84593136516406,0.25089651655953055,28.458333291749803
2026-09-29 19:22:13.316705792,0.009576171875,-0.28967919921874996,10.239321777343749,0.0,0.0,-0.0010652644360316954,358.84501567557516,0.2505132982806622,28.45771651834951
2026-09-29 19:22:13.317705984,0.00239404296875,-0.28728515624999995,10.227351562499999,0.0,0.0,0.0,358.8441991216119,0.24965257964505436,28.457716654326266
2026-09-29 19:22:13.317705984,-0.009576171875,-0.30883154296875,10.1651064453125,0.0,0.0,0.0,358.8435571648419,0.2490713960447504,28.457716272180136
2026-09-29 19:22:13.317705984,-0.0143642578125,-0.2681328125,10.150742187499999,-0.0010652644360316954,0.0,0.0,358.8422829054275,0.24846690367195215,28.457715610714782
2026-09-29 19:22:13.318706688,0.0143642578125,-0.26573876953125,10.141166015624998,0.0,0.0,0.0,358.8417837864555,0.24834617842043358,28.458014792265516
2026-09-29 19:22:13.320709632,-0.0047880859375,-0.30164941406249995,10.25847412109375,0.0,0.0,0.0,358.8419420303262,0.24794974046060558,28.457703927364182
2026-09-29 19:22:13.321708800,0.021546386718749998,-0.27770898437499997,10.234533691406249,0.0,0.0010652644360316954,0.0,358.84114328707335,0.24832037829439418,28.457379210899838
2026-09-29 19:22:13.331516160,-0.023940429687499997,-0.26334472656249996,10.22016943359375,0.0,-0.0010652644360316954,0.0,358.8404786885674,0.2480003716991197,28.457677623494757
2026-09-29 19:22:13.333371648,-0.0047880859375,-0.23940429687499998,10.19144091796875,-0.0010652644360316954,0.0,0.0,358.8392544464718,0.24752930655279562,28.45767722115389
2026-09-29 19:22:13.333371648,0.01675830078125,-0.25616259765625,10.14356005859375,-0.0010652644360316954,0.0,0.0,358.83827971918225,0.24697412492226622,28.45798308837698
2026-09-29 19:22:13.333371648,-0.01915234375,-0.29207324218749997,10.2034111328125,0.0,-0.0010652644360316954,0.0,358.83750782149866,0.24593252132665025,28.45768457035823
2026-09-29 19:22:13.333371648,0.021546386718749998,-0.26095068359374995,10.184258789062499,0.0,0.0,0.0,358.83709172724775,0.24521209368577437,28.457690014038562
2026-09-29 19:22:13.349109504,0.026334472656249996,-0.2729208984375,10.2034111328125,0.0,-0.0010652644360316954,0.0,358.83718405407586,0.24409804996426096,28.457696276814772
2026-09-29 19:22:13.363585792,0.047880859374999994,-0.2681328125,10.172288574218749,0.0,0.0,0.0,358.83645868524343,0.24370225314188673,28.457074236629467
2026-09-29 19:22:13.368587008,0.03112255859375,-0.25137451171874997,10.205805175781249,0.0,0.0,0.0010652644360316954,358.83596588115466,0.24352657916794848,28.45736726017822
2026-09-29 19:22:13.383121664,0.00239404296875,-0.29207324218749997,10.160318359375,0.0,0.0,0.0,358.83595716329893,0.242852978176433,28.457368255965797
2026-09-29 19:22:13.393121024,-0.00239404296875,-0.26095068359374995,10.17707666015625,0.0,0.0,0.0010652644360316954,358.83461972376574,0.24228080475908645,28.457666375276816
2026-09-29 19:22:13.394643712,0.0047880859375,-0.2729208984375,10.236927734375,0.0,-0.0010652644360316954,0.0,358.8338535831571,0.24168321982775604,28.456751462735845
2026-09-29 19:22:13.410149120,0.028728515625,-0.30404345703124996,10.179470703124998,0.0,-0.0010652644360316954,0.0,358.8324898433105,0.24056743471692107,28.457062023932032
2026-09-29 19:22:13.410149120,0.03112255859375,-0.27052685546875,10.205805175781249,0.0,-0.0010652644360316954,0.0,358.8319195855898,0.23917340009047638,28.457068187511894
2026-09-29 19:22:13.457057792,-0.009576171875,-0.31361962890624995,10.1746826171875,0.0,0.0,0.0,358.83114113630006,0.238421518582126,28.45676347399476
2026-09-29 19:22:13.457057792,-0.009576171875,-0.28010302734375,10.21059326171875,0.0,0.0,0.0,358.83035528978775,0.238242321778152,28.456451360823674
2026-09-29 19:22:13.457057792,0.023940429687499997,-0.258556640625,10.217775390624999,0.0,-0.0010652644360316954,0.0010652644360316954,358.8292562971845,0.23761183972510547,28.456755536359452
2026-09-29 19:22:13.457057792,0.023940429687499997,-0.30883154296875,10.234533691406249,0.0,0.0,0.0010652644360316954,358.8280673670447,0.23739355196242487,28.45705434473161
2026-09-29 19:22:13.472683264,-0.01675830078125,-0.29207324218749997,10.179470703124998,0.0,-0.0010652644360316954,0.0,358.82703017717716,0.2363138165434241,28.45675487850837
2026-09-29 19:22:13.472683264,0.0047880859375,-0.28010302734375,10.162712402343749,0.0,0.0,0.0,358.8262439445172,0.23615085594730104,28.45705294452678
2026-09-29 19:22:13.488281600,0.009576171875,-0.27770898437499997,10.172288574218749,0.0,-0.0010652644360316954,0.0010652644360316954,358.8255504638337,0.23533216872180984,28.457669085465348
2026-09-29 19:22:13.488281600,0.011970214843749999,-0.27770898437499997,10.184258789062499,0.0,0.0,0.0010652644360316954,358.8248394785649,0.2353053180520723,28.457961180421453
2026-09-29 19:22:13.503933696,-0.047880859374999994,-0.27770898437499997,10.184258789062499,0.0,0.0,0.0,358.8242977042214,0.23506475123758178,28.458260209020523
2026-09-29 19:22:13.534333952,-0.0047880859375,-0.28010302734375,10.20819921875,-0.0010652644360316954,-0.0010652644360316954,0.0,358.8231012899317,0.23435473662812661,28.45765638901933
2026-09-29 19:22:13.535068416,0.011970214843749999,-0.29207324218749997,10.19144091796875,0.0010652644360316954,0.0010652644360316954,0.0,358.8230878151994,0.2337467958159497,28.45734498801816
2026-09-29 19:22:13.542452224,0.043092773437499995,-0.258556640625,10.16989453125,0.0,0.0,0.0,358.82249075549527,0.23363403822608747,28.457332446059137
2026-09-29 19:22:13.549584384,-0.0047880859375,-0.2824970703125,10.205805175781249,0.0,0.0,0.0,358.8215519011972,0.2326361966570612,28.457332380963578
2026-09-29 19:22:13.566098176,-0.0047880859375,-0.32319580078125,10.198623046875,0.0,-0.0010652644360316954,0.0010652644360316954,358.820615382733,0.23212925853014682,28.45794258328465
2026-09-29 19:22:13.574103552,-0.0143642578125,-0.29925537109375,10.15313623046875,0.0,0.0,0.0010652644360316954,358.82008593989354,0.231933896106442,28.458240444937434
2026-09-29 19:22:13.581343488,-0.01915234375,-0.29207324218749997,10.201017089843749,0.0,0.0,0.0,358.8190221739901,0.23167641159523586,28.457928466363736
2026-09-29 19:22:13.595318784,-0.00239404296875,-0.2537685546875,10.2034111328125,0.0,0.0,0.0,358.817797238853,0.23137068199060357,28.45792833016424
2026-09-29 19:22:13.595318784,-0.009576171875,-0.2681328125,10.157924316406248,0.0,-0.0010652644360316954,0.0,358.817143846036,0.23072139462115518,28.457929356852944
2026-09-29 19:22:13.626587904,0.011970214843749999,-0.29207324218749997,10.205805175781249,0.0,0.0,0.0010652644360316954,358.8166583341604,0.23033022814680193,28.458235085331644
2026-09-29 19:22:13.626587904,-0.0047880859375,-0.28010302734375,10.201017089843749,0.0,0.0,0.0,358.8156455277989,0.22986005417189784,28.45853992028986
2026-09-29 19:22:13.689121792,0.011970214843749999,-0.2729208984375,10.189046874999999,-0.0010652644360316954,-0.0010652644360316954,0.0010652644360316954,358.8147256381478,0.22941720616183603,28.45884632072197
2026-09-29 19:22:13.689121792,-0.00718212890625,-0.23701025390624997,10.222563476562499,0.0,-0.0010652644360316954,0.0,358.81418865897547,0.2285058081275779,28.45885298144163
2026-09-29 19:22:13.689121792,0.028728515625,-0.27531494140624996,10.19144091796875,0.0,0.0,0.0,358.8135661541406,0.22786025305498708,28.458854118715085
2026-09-29 19:22:13.704713728,0.00718212890625,-0.26095068359374995,10.19144091796875,0.0,0.0,0.0,358.81284369439027,0.22751621742425346,28.458543495868398
2026-09-29 19:22:13.704713728,0.0,-0.26573876953125,10.1651064453125,-0.0010652644360316954,0.0,0.0021305288720633907,358.8118627253049,0.22693265108468041,28.459459908782748
2026-09-29 19:22:13.720337408,-0.026334472656249996,-0.30404345703124996,10.1746826171875,0.0,0.0,0.0,358.8111283214572,0.22685545632354712,28.459149328658988
2026-09-29 19:22:13.720337408,0.03112255859375,-0.29925537109375,10.22016943359375,0.0,0.0,0.0,358.81037253356305,0.2268636197690475,28.45914246761169
2026-09-29 19:22:13.722455296,0.00239404296875,-0.28489111328125,10.14356005859375,0.0,0.0,0.0,358.8097018606004,0.22670598588733673,28.458824616404502
2026-09-29 19:22:13.722455296,-0.023940429687499997,-0.2729208984375,10.172288574218749,0.0,0.0,0.0,358.80876393060475,0.22627764299135583,28.45881823564031
2026-09-29 19:22:13.722455296,0.0,-0.335166015625,10.145954101562499,0.0,0.0,0.0,358.80784382053935,0.22648109663060545,28.458500500949455
2026-09-29 19:22:13.722455296,0.0047880859375,-0.29446728515625,10.198623046875,0.0,0.0,0.0,358.8064137177917,0.2267831090923743,28.458480732099318
2026-09-29 19:22:13.736460288,0.00239404296875,-0.28489111328125,10.18665283203125,0.0,0.0,0.0010652644360316954,358.80589199324004,0.22685145409892693,28.458773608023613
2026-09-29 19:22:13.752472832,0.0383046875,-0.3064375,10.150742187499999,-0.0010652644360316954,0.0,0.0,358.8046804211992,0.22688688152571912,28.458150849109817
2026-09-29 19:22:13.752472832,-0.00718212890625,-0.28010302734375,10.184258789062499,0.0,0.0,0.0,358.80384172524913,0.2256509812164536,28.45815644246025
2026-09-29 19:22:13.768102656,0.04069873046875,-0.3064375,10.17707666015625,-0.0010652644360316954,0.0,0.0,358.8029117102936,0.22499982521389797,28.458156497853203
2026-09-29 19:22:13.783728384,0.01675830078125,-0.28010302734375,10.28720263671875,0.0,0.0,0.0,358.8028063678687,0.2241909481122396,28.45815614653353
2026-09-29 19:22:13.783728384,0.0047880859375,-0.2824970703125,10.16989453125,-0.0010652644360316954,-0.0010652644360316954,0.0,358.80182266363437,0.22346092963085007,28.458157147935225
2026-09-29 19:22:13.799353344,-0.009576171875,-0.296861328125,10.205805175781249,0.0,0.0,0.0,358.8011581043466,0.22260914733591353,28.457858479225344
2026-09-29 19:22:13.815009536,0.011970214843749999,-0.28728515624999995,10.196229003906248,0.0,0.0,0.0,358.80010813374474,0.2222938754954338,28.457851699603626
2026-09-29 19:22:13.815009536,0.026334472656249996,-0.2729208984375,10.22495751953125,0.0,0.0,0.0,358.7988314833461,0.22247718872102973,28.458137600894965
2026-09-29 19:22:13.830603776,-0.028728515625,-0.26573876953125,10.1651064453125,0.0,0.0,0.0,358.79845303973383,0.2218192834202271,28.45813872631324
2026-09-29 19:22:13.830603776,-0.043092773437499995,-0.28489111328125,10.184258789062499,0.0,0.0,0.0010652644360316954,358.7979148592271,0.22154708373292367,28.45874301489258
2026-09-29 19:22:13.846228480,0.00718212890625,-0.31361962890624995,10.229745605468748,0.0,0.0,0.0010652644360316954,358.7970531050142,0.22124724603937657,28.459353764678976
2026-09-29 19:22:13.861852416,0.0,-0.28010302734375,10.1938349609375,0.0,0.0010652644360316954,0.0010652644360316954,358.7962817074259,0.22127201162212137,28.459645661449585
2026-09-29 19:22:13.861852416,0.0,-0.2681328125,10.14356005859375,0.0,0.0,0.0,358.7958324712618,0.22063542136236286,28.459341413640537
2026-09-29 19:22:13.877496320,0.0,-0.296861328125,10.17707666015625,0.0,-0.0010652644360316954,0.0,358.79546050875115,0.2203582584253357,28.45903110748713
2026-09-29 19:22:13.893104384,-0.0143642578125,-0.28489111328125,10.1746826171875,0.0,0.0,0.0010652644360316954,358.7946015844566,0.22016119878815593,28.459330250215782
2026-09-29 19:22:13.893104384,0.035910644531249994,-0.2729208984375,10.16989453125,0.0,0.0,0.0,358.7937788029462,0.22009101216920923,28.45932438905718
2026-09-29 19:22:13.908727808,-0.01915234375,-0.27052685546875,10.19144091796875,0.0,0.0,0.0,358.7932488260478,0.21971699592953173,28.459318421957494
2026-09-29 19:22:13.955602944,0.01915234375,-0.26334472656249996,10.17707666015625,0.0,-0.0010652644360316954,0.0010652644360316954,358.79247143293105,0.21878554673893183,28.45993582738663
2026-09-29 19:22:13.971227648,0.0,-0.26573876953125,10.184258789062499,0.0,-0.0010652644360316954,0.0,358.791567105637,0.21768989981386208,28.459637591949168
2026-09-29 19:22:14.002515712,-0.0047880859375,-0.29446728515625,10.13158984375,0.0,0.0,0.0,358.79032026269874,0.21707354753262292,28.458722422994324
2026-09-29 19:22:14.002515712,-0.00239404296875,-0.28489111328125,10.18186474609375,0.0,0.0,0.0010652644360316954,358.7900345512329,0.2162542278526728,28.458729347228175
2026-09-29 19:22:14.018155264,0.009576171875,-0.28489111328125,10.217775390624999,0.0,0.0010652644360316954,0.0,358.78978935932304,0.21636253762181626,28.459327205321113
2026-09-29 19:22:14.018155264,-0.01675830078125,-0.27052685546875,10.2321396484375,0.0,0.0,0.0,358.78930651146845,0.21617872550725656,28.45932152168359
2026-09-29 19:22:14.018155264,0.00718212890625,-0.24419238281249997,10.184258789062499,-0.0010652644360316954,0.0,0.0,358.78836265359377,0.21610705975932096,28.45962150242332
2026-09-29 19:22:14.018155264,0.035910644531249994,-0.28967919921874996,10.18665283203125,0.0,0.0,0.0,358.78763664857047,0.21506380791243226,28.4596289902203
2026-09-29 19:22:14.033780224,0.01675830078125,-0.28728515624999995,10.172288574218749,0.0,0.0,0.0,358.7869129307709,0.2145397394387056,28.459622434293593
2026-09-29 19:22:14.049430528,0.009576171875,-0.28728515624999995,10.15313623046875,0.0,0.0010652644360316954,0.0,358.7862498026838,0.21476000267708642,28.459603120437738
2026-09-29 19:22:14.080655104,-0.0047880859375,-0.27052685546875,10.22016943359375,0.0,0.0,0.0,358.7855623880296,0.21469421276648018,28.459286233029296
2026-09-29 19:22:14.080655104,-0.035910644531249994,-0.26573876953125,10.21538134765625,0.0,0.0,0.0,358.7848548285916,0.21426339045987627,28.459280827055387
2026-09-29 19:22:14.080655104,-0.00239404296875,-0.30164941406249995,10.20819921875,-0.0010652644360316954,0.0,0.0010652644360316954,358.7838903347998,0.21386463042964932,28.45958726096173
2026-09-29 19:22:14.080655104,-0.0047880859375,-0.28010302734375,10.189046874999999,-0.0010652644360316954,0.0,0.0,358.78263190541895,0.21372627700808092,28.460191111082114
2026-09-29 19:22:14.112324096,0.00718212890625,-0.26095068359374995,10.150742187499999,0.0,0.0,0.0,358.78272459512635,0.21361542951111825,28.460178815555654
2026-09-29 19:22:14.134181376,-0.0143642578125,-0.2824970703125,10.18665283203125,0.0,-0.0010652644360316954,0.0010652644360316954,358.7823761587475,0.2126635784206297,28.46049179436807
2026-09-29 19:22:14.146448896,0.0,-0.26573876953125,10.198623046875,0.0,0.0,0.0,358.7822154268376,0.21207779544932526,28.461102926081022
2026-09-29 19:22:14.146448896,0.0,-0.2729208984375,10.2034111328125,-0.0010652644360316954,-0.0010652644360316954,0.0,358.7807628082,0.21156451824915584,28.46079853936647
2026-09-29 19:22:14.146448896,0.011970214843749999,-0.26095068359374995,10.21538134765625,0.0,0.0,0.0,358.78032930534613,0.21158308442252316,28.459877768299474
2026-09-29 19:22:14.146448896,-0.009576171875,-0.27531494140624996,10.19144091796875,0.0,0.0010652644360316954,0.0,358.77971219454815,0.21186075886110822,28.459248535787175
2026-09-29 19:22:14.146448896,-0.0047880859375,-0.30404345703124996,10.244109863281249,0.0,0.0,0.0,358.77916286060537,0.21178616347571144,28.459547699578806
2026-09-29 19:22:14.152253952,0.0047880859375,-0.27531494140624996,10.184258789062499,0.0,0.0010652644360316954,0.0,358.778208043551,0.21158532413391773,28.45893123286961
2026-09-29 19:22:14.152253952,0.026334472656249996,-0.28489111328125,10.1746826171875,0.0,0.0,0.0,358.77751937781386,0.21091030172131184,28.458932420278998
2026-09-29 19:22:14.159758592,0.0047880859375,-0.296861328125,10.172288574218749,0.0,-0.0010652644360316954,0.0010652644360316954,358.7770310152358,0.2098299948134635,28.459244912995562
2026-09-29 19:22:14.175416064,0.00718212890625,-0.25137451171874997,10.196229003906248,0.0,0.0,0.0,358.77648423160826,0.20925660372587052,28.459550736110515
2026-09-29 19:22:14.191016192,0.0,-0.28489111328125,10.196229003906248,0.0,-0.0010652644360316954,0.0,358.775935161064,0.20825370937994997,28.459559036533182
2026-09-29 19:22:14.206639872,0.0,-0.2824970703125,10.1268017578125,-0.0010652644360316954,0.0,0.0,358.77450593914324,0.20795437556984958,28.45955337439621
2026-09-29 19:22:14.206639872,0.0047880859375,-0.28489111328125,10.184258789062499,0.0,0.0,0.0,358.7734424361033,0.20841248194945622,28.459533665067802
2026-09-29 19:22:14.206639872,-0.0047880859375,-0.2729208984375,10.1938349609375,-0.0010652644360316954,0.0,0.0,358.7725650402188,0.20896014816402705,28.459514641309397
2026-09-29 19:22:14.222264320,-0.00718212890625,-0.3064375,10.157924316406248,0.0,0.0,0.0,358.7720259619667,0.20862015072914084,28.459508802865596
2026-09-29 19:22:14.222264320,-0.01675830078125,-0.31361962890624995,10.1651064453125,0.0,0.0,0.0,358.77120269633906,0.20810951992938148,28.458899501476175
2026-09-29 19:22:14.237890048,-0.0143642578125,-0.28728515624999995,10.17707666015625,0.0,0.0,0.0,358.77033236209587,0.20753308070877735,28.45828994966152
2026-09-29 19:22:14.253514752,0.01675830078125,-0.31361962890624995,10.162712402343749,-0.0010652644360316954,0.0,0.0,358.7693754789792,0.20733458900037902,28.457978616817105
2026-09-29 19:22:14.269441792,-0.011970214843749999,-0.29207324218749997,10.184258789062499,0.0,0.0,0.0,358.7683768771826,0.2068595150296563,28.45766707805507
2026-09-29 19:22:14.285072128,0.01675830078125,-0.28489111328125,10.162712402343749,0.0,0.0,0.0,358.76818402776627,0.20622595608235578,28.457369570633702
2026-09-29 19:22:14.285072128,-0.00718212890625,-0.28967919921874996,10.222563476562499,0.0,0.0,0.0,358.76762258321247,0.20585286270387934,28.457363582675892
2026-09-29 19:22:14.285072128,-0.028728515625,-0.26095068359374995,10.15313623046875,0.0,0.0,0.0010652644360316954,358.76715415470153,0.20545780910806805,28.457669659269808
2026-09-29 19:22:14.285072128,-0.0143642578125,-0.28010302734375,10.167500488281249,0.0,-0.0010652644360316954,0.0010652644360316954,358.76620540817004,0.20481888272709792,28.458287888618106
2026-09-29 19:22:14.300726016,0.009576171875,-0.29207324218749997,10.21059326171875,0.0,-0.0010652644360316954,0.0,358.7657965696704,0.20399017820316287,28.458600843837935
2026-09-29 19:22:14.316323328,0.0047880859375,-0.3064375,10.179470703124998,0.0,-0.0010652644360316954,0.0,358.76458248019156,0.20299516293652806,28.45860797278511
2026-09-29 19:22:14.331947264,0.0,-0.29446728515625,10.1651064453125,0.0,0.0,0.0,358.7637857143589,0.20282522474854434,28.458602469102196
2026-09-29 19:22:14.331947264,0.0,-0.2824970703125,10.162712402343749,0.0,0.0,0.0,358.7627744257065,0.2027224527211493,28.458596156210664
2026-09-29 19:22:14.363196160,-0.01675830078125,-0.28010302734375,10.21538134765625,0.0,0.0,0.0,358.76245502867357,0.20242780821909823,28.458286137776774
2026-09-29 19:22:14.378841088,0.0047880859375,-0.2537685546875,10.22495751953125,-0.0010652644360316954,0.0,0.0,358.7612918038003,0.20244405656436543,28.45828027392464
2026-09-29 19:22:14.394447360,-0.023940429687499997,-0.28010302734375,10.20819921875,-0.0010652644360316954,0.0,0.0,358.76042281439794,0.20250035480130238,28.458268868795127
2026-09-29 19:22:14.394447360,0.01915234375,-0.258556640625,10.179470703124998,0.0,0.0,0.0010652644360316954,358.7600509872515,0.20219789546205091,28.458880608681902
2026-09-29 19:22:14.425884672,0.023940429687499997,-0.25616259765625,10.22495751953125,-0.0010652644360316954,0.0,0.0,358.75906701980676,0.2022741873138026,28.458563780559597
2026-09-29 19:22:14.457134080,0.021546386718749998,-0.2824970703125,10.117225585937499,-0.0010652644360316954,-0.0010652644360316954,0.0,358.75804249972254,0.2016020862455157,28.458565044750724
2026-09-29 19:22:14.488382208,0.011970214843749999,-0.29207324218749997,10.198623046875,0.0,0.0,0.0,358.7576092430312,0.2012773117504374,28.45855961216431
2026-09-29 19:22:14.504007680,-0.023940429687499997,-0.27531494140624996,10.20819921875,0.0,-0.0010652644360316954,0.0,358.75679922913093,0.2006666072451037,28.45825548300527
2026-09-29 19:22:14.504007680,0.028728515625,-0.26334472656249996,10.11483154296875,-0.0010652644360316954,-0.0010652644360316954,0.0,358.75590292845453,0.20049973619461448,28.458256145377604
2026-09-29 19:22:14.504007680,0.01675830078125,-0.30164941406249995,10.189046874999999,0.0,-0.0021305288720633907,0.0,358.7551569811395,0.1986860298612526,28.45858244293653
2026-09-29 19:22:14.519634944,0.0,-0.2824970703125,10.18665283203125,0.0,0.0,0.0010652644360316954,358.7545753280043,0.19788968238911986,28.459193420696582
2026-09-29 19:22:14.519634944,0.00239404296875,-0.26573876953125,10.21059326171875,0.0,0.0,0.0,358.7543665281212,0.19769677891463122,28.458882725269948
2026-09-29 19:22:14.519634944,0.0,-0.28010302734375,10.155530273437499,0.0,0.0,0.0,358.7534894502255,0.1972119070673958,28.458572886623532
2026-09-29 19:22:14.519634944,0.011970214843749999,-0.29925537109375,10.2417158203125,0.0,0.0,0.0,358.75261904449945,0.1966695088643137,28.45857374992856
2026-09-29 19:22:14.519634944,-0.0047880859375,-0.28489111328125,10.184258789062499,-0.0010652644360316954,0.0,0.0,358.75106527025355,0.19602184260436645,28.458574338824764
2026-09-29 19:22:14.551259648,0.0,-0.29925537109375,10.20819921875,0.0,0.0,0.0,358.7502484400429,0.19604547905135825,28.458256962032266
2026-09-29 19:22:14.551259648,-0.026334472656249996,-0.28489111328125,10.18186474609375,0.0,-0.0021305288720633907,0.0,358.7494568957169,0.19509327358229636,28.458264677039786
2026-09-29 19:22:14.566888192,-0.026334472656249996,-0.2729208984375,10.2034111328125,0.0,0.0,0.0,358.748767564571,0.19468051726227503,28.457960021560968
2026-09-29 19:22:14.566888192,0.009576171875,-0.258556640625,10.234533691406249,0.0,0.0,0.0,358.74839526780084,0.19471079034439498,28.45795493060186
2026-09-29 19:22:14.616550656,0.0,-0.27531494140624996,10.15313623046875,0.0,0.0,0.0,358.74772617566055,0.19397398596729665,28.457956430140165
2026-09-29 19:22:14.616550656,0.01675830078125,-0.28728515624999995,10.19144091796875,0.0,0.0,0.0010652644360316954,358.74719001661157,0.19434541721890802,28.45824259250101
2026-09-29 19:22:14.616550656,0.0047880859375,-0.28728515624999995,10.157924316406248,0.0,0.0,0.0010652644360316954,358.74633172760434,0.19417340327403906,28.458541949844587
2026-09-29 19:22:14.643452160,0.021546386718749998,-0.28489111328125,10.21059326171875,0.0,-0.0010652644360316954,0.0,358.74563922828065,0.19359833678630234,28.458543469941603
2026-09-29 19:22:14.643452160,0.047880859374999994,-0.2729208984375,10.205805175781249,0.0,-0.0010652644360316954,0.0,358.74529276616653,0.19302919384634945,28.458233374010927
2026-09-29 19:22:14.643452160,0.04069873046875,-0.28728515624999995,10.14834814453125,0.0,-0.0010652644360316954,0.0,358.74466200855977,0.1921378818308335,28.458235079335974
2026-09-29 19:22:14.643452160,0.047880859374999994,-0.28967919921874996,10.19144091796875,0.0,0.0,0.0,358.7438694880258,0.1917128481995558,28.458229532044875
2026-09-29 19:22:14.644668672,0.023940429687499997,-0.2681328125,10.229745605468748,-0.0010652644360316954,-0.0010652644360316954,0.0010652644360316954,358.7424534579973,0.19098180590397779,28.458230781830487
2026-09-29 19:22:14.644668672,0.00718212890625,-0.27770898437499997,10.227351562499999,0.0,-0.0010652644360316954,0.0,358.7422304110004,0.19002060573448668,28.45854462705972
2026-09-29 19:22:14.644668672,-0.0047880859375,-0.3064375,10.145954101562499,0.0,0.0,0.0010652644360316954,358.74137343984125,0.19014823099115727,28.458837242647242
2026-09-29 19:22:14.645689600,-0.00239404296875,-0.30164941406249995,10.212987304687498,0.0,0.0,0.0,358.7407898680929,0.18992499170489568,28.45883134464512
2026-09-29 19:22:14.646689024,0.0,-0.27770898437499997,10.2034111328125,0.0,0.0,0.0,358.7403957048309,0.19000569752651197,28.458215114850038
2026-09-29 19:22:14.660707328,0.026334472656249996,-0.30164941406249995,10.189046874999999,0.0,0.0,0.0,358.7399209929191,0.18922551334174437,28.457606196740187
2026-09-29 19:22:14.661690624,-0.01675830078125,-0.29446728515625,10.124407714843748,0.0,-0.0010652644360316954,0.0,358.7392809496407,0.18855245881934218,28.457606896023524
2026-09-29 19:22:14.677341696,0.021546386718749998,-0.3112255859375,10.19144091796875,0.0,0.0,0.0,358.7387714239938,0.18828504457784503,28.45729626870645
2026-09-29 19:22:14.677341696,0.0047880859375,-0.24658642578124998,10.16989453125,0.0,0.0010652644360316954,0.0010652644360316954,358.7381251157522,0.18824502615849184,28.456978469560855
2026-09-29 19:22:14.692968704,-0.0047880859375,-0.258556640625,10.1938349609375,-0.0010652644360316954,0.0,0.0,358.7373882578468,0.18820457373693203,28.457272516662226
2026-09-29 19:22:14.692968704,-0.0143642578125,-0.2537685546875,10.20819921875,0.0,0.0,0.0,358.737575533884,0.1879638349986944,28.45696326255107
2026-09-29 19:22:14.724217088,-0.028728515625,-0.29925537109375,10.18665283203125,0.0,-0.0010652644360316954,0.0,358.73767903854014,0.187571291634142,28.45696542085427
2026-09-29 19:22:14.745045760,0.0143642578125,-0.3112255859375,10.227351562499999,0.0,0.0,0.0010652644360316954,358.7368852065123,0.18788847446310128,28.45725839202274
2026-09-29 19:22:14.756066816,-0.00718212890625,-0.29925537109375,10.18665283203125,0.0,0.0,0.0,358.73617366962384,0.18758209552993793,28.456947129136474
2026-09-29 19:22:14.788414720,-0.026334472656249996,-0.27531494140624996,10.25368603515625,0.0,0.0,0.0010652644360316954,358.73559379475876,0.18748260058400099,28.4575515713787
2026-09-29 19:22:14.788414720,-0.03112255859375,-0.26573876953125,10.19144091796875,-0.0010652644360316954,-0.0010652644360316954,0.0,358.73497514039394,0.18718311789068254,28.457553395115237
2026-09-29 19:22:14.819047424,0.0383046875,-0.25616259765625,10.162712402343749,-0.0010652644360316954,-0.0010652644360316954,0.0010652644360316954,358.7341451558505,0.18674550910470486,28.45786059155784
2026-09-29 19:22:14.850296832,-0.00718212890625,-0.31840771484374997,10.2417158203125,0.0,0.0,0.0,358.7337202397896,0.18634375671864695,28.45785632775176
2026-09-29 19:22:14.865923072,0.011970214843749999,-0.27770898437499997,10.22016943359375,0.0,0.0,0.0,358.7327822570012,0.18627127637311056,28.45785038367759
2026-09-29 19:22:14.881547264,0.0143642578125,-0.28489111328125,10.18186474609375,0.0,0.0,0.0010652644360316954,358.73281974151763,0.18565726578196673,28.45846269385917
2026-09-29 19:22:14.881547264,-0.00239404296875,-0.29446728515625,10.162712402343749,0.0,0.0,0.0,358.7319910042655,0.18570134023525622,28.458755550283747
2026-09-29 19:22:14.881547264,-0.01675830078125,-0.296861328125,10.162712402343749,0.0,0.0,0.0010652644360316954,358.73091550695165,0.1859500190246176,28.45935368493874
2026-09-29 19:22:14.897171968,-0.01915234375,-0.28010302734375,10.22016943359375,0.0,0.0,0.0,358.7301022381047,0.18558868712191165,28.459355000512378
2026-09-29 19:22:14.897171968,0.023940429687499997,-0.2824970703125,10.20819921875,0.0,0.0,0.0,358.7294986179118,0.18528585651952098,28.459051744359325
2026-09-29 19:22:14.912798720,0.011970214843749999,-0.26095068359374995,10.184258789062499,0.0,-0.0010652644360316954,0.0,358.7291494900521,0.1839568461489196,28.45906701247014
2026-09-29 19:22:14.928422656,0.03112255859375,-0.28489111328125,10.17707666015625,0.0,-0.0010652644360316954,0.0010652644360316954,358.72877639787725,0.18328854394699748,28.459373877904778
2026-09-29 19:22:14.928422656,0.01675830078125,-0.27531494140624996,10.217775390624999,0.0,0.0,0.0,358.7285224722991,0.18243553165070459,28.4590766636212
2026-09-29 19:22:14.928422656,0.00239404296875,-0.28010302734375,10.141166015624998,0.0,0.0,0.0010652644360316954,358.72811579990446,0.18210114037549233,28.459376597256114
2026-09-29 19:22:14.928422656,0.023940429687499997,-0.28967919921874996,10.201017089843749,0.0,-0.0010652644360316954,0.0,358.7277852563717,0.18158832519404206,28.459378513464813
2026-09-29 19:22:14.928422656,-0.0047880859375,-0.31361962890624995,10.18186474609375,0.0,-0.0010652644360316954,0.0010652644360316954,358.72737937984897,0.1810035403590174,28.45968521965526
2026-09-29 19:22:14.939618816,-0.011970214843749999,-0.29207324218749997,10.155530273437499,-0.0010652644360316954,0.0,0.0,358.7265421561547,0.1808117149633909,28.459679717425875
2026-09-29 19:22:14.939618816,0.00239404296875,-0.28967919921874996,10.20819921875,0.0,-0.0010652644360316954,0.0010652644360316954,358.7260131742163,0.18050028389670253,28.459680965747324
2026-09-29 19:22:14.939618816,-0.028728515625,-0.28728515624999995,10.16989453125,0.0,0.0,0.0,358.7251776648272,0.18038729930933425,28.45967539792576
2026-09-29 19:22:14.939618816,0.0047880859375,-0.28489111328125,10.2321396484375,0.0,0.0,0.0,358.7251167245652,0.1806067547458082,28.4596635450546
2026-09-29 19:22:14.944125184,0.011970214843749999,-0.31361962890624995,10.212987304687498,0.0,0.0,0.0,358.72469305158586,0.1810441887262506,28.45994983537517
2026-09-29 19:22:14.959755520,0.00718212890625,-0.2824970703125,10.234533691406249,0.0,0.0,0.0,358.7244059994587,0.18034052575434578,28.46025601959127
2026-09-29 19:22:14.975380736,0.05266894531249999,-0.2824970703125,10.145954101562499,0.0,0.0,0.0,358.7235719720813,0.1804404771002699,28.460243659668404
2026-09-29 19:22:14.975380736,0.03112255859375,-0.30164941406249995,10.239321777343749,0.0,0.0,0.0010652644360316954,358.7230355724333,0.17977410159653595,28.46084829323179
2026-09-29 19:22:14.991032320,-0.0047880859375,-0.26334472656249996,10.18665283203125,0.0,-0.0010652644360316954,0.0,358.7223508165757,0.17911934751969072,28.46085001169226
2026-09-29 19:22:15.006631424,-0.00239404296875,-0.28489111328125,10.184258789062499,0.0,0.0,0.0,358.72204900059756,0.17849905238033992,28.460546900128378
2026-09-29 19:22:15.006631424,-0.021546386718749998,-0.27531494140624996,10.179470703124998,0.0,0.0010652644360316954,0.0010652644360316954,358.7216551519596,0.17854352969835804,28.46084012472466
2026-09-29 19:22:15.053505024,-0.009576171875,-0.30404345703124996,10.124407714843748,0.0,0.0,0.0,358.7213024555887,0.178482405709256,28.460530083267496
2026-09-29 19:22:15.069129728,0.01675830078125,-0.30164941406249995,10.184258789062499,-0.0010652644360316954,0.0,0.0,358.7201527448329,0.17800491196287882,28.46053128508451
2026-09-29 19:22:15.069129728,0.021546386718749998,-0.29446728515625,10.2321396484375,0.0,0.0,0.0,358.71956552318676,0.17722830499003583,28.46083760814394
2026-09-29 19:22:15.069129728,-0.0143642578125,-0.29446728515625,10.19144091796875,0.0,0.0,0.0,358.71907244361824,0.17667159522270753,28.460838942606124
2026-09-29 19:22:15.069129728,0.021546386718749998,-0.2824970703125,10.16989453125,0.0,0.0,0.0,358.7186254856569,0.17637506728161081,28.460528602113545
2026-09-29 19:22:15.084782080,0.0,-0.28967919921874996,10.196229003906248,0.0,0.0,0.0,358.7175561484846,0.17595396807442215,28.460523294443767
2026-09-29 19:22:15.084782080,0.011970214843749999,-0.27770898437499997,10.1363779296875,0.0,0.0,0.0,358.7169195135461,0.17559839121860032,28.46052520756271
2026-09-29 19:22:15.116005120,-0.021546386718749998,-0.27770898437499997,10.179470703124998,0.0,0.0,0.0,358.7161909674142,0.17541787844005957,28.460519979695384
2026-09-29 19:22:15.131632128,0.023940429687499997,-0.30164941406249995,10.22016943359375,0.0,0.0,0.0,358.7160536305383,0.1753161167970462,28.460514753463638
2026-09-29 19:22:15.162880256,-0.009576171875,-0.29925537109375,10.141166015624998,0.0,0.0,0.0010652644360316954,358.71559620906186,0.17483604260668417,28.460821483245837
2026-09-29 19:22:15.167170816,0.00239404296875,-0.26095068359374995,10.19144091796875,-0.0010652644360316954,0.0,0.0,358.7145560917751,0.17460978571585278,28.460511275825848
2026-09-29 19:22:15.167170816,0.01915234375,-0.2824970703125,10.196229003906248,0.0,-0.0021305288720633907,0.0010652644360316954,358.71416440093805,0.1735344959746397,28.460832838475064
2026-09-29 19:22:15.167170816,0.009576171875,-0.26573876953125,10.167500488281249,0.0,0.0,0.0,358.7132256311648,0.17331076171636714,28.46113304653914
2026-09-29 19:22:15.167170816,0.0143642578125,-0.2537685546875,10.1938349609375,0.0,0.0010652644360316954,0.0010652644360316954,358.7126864165335,0.1736911158244142,28.461724100464032
2026-09-29 19:22:15.167170816,0.023940429687499997,-0.29925537109375,10.184258789062499,0.0,-0.0010652644360316954,0.0,358.7122154799326,0.17267092851590624,28.461428378868423
2026-09-29 19:22:15.167170816,-0.00239404296875,-0.2729208984375,10.21538134765625,-0.0010652644360316954,-0.0010652644360316954,0.0010652644360316954,358.71099312585807,0.172150366498869,28.462039843268037
2026-09-29 19:22:15.167170816,0.0,-0.29446728515625,10.2034111328125,0.0,-0.0021305288720633907,0.0010652644360316954,358.7104334299655,0.1710731844733508,28.462055955891806
2026-09-29 19:22:15.178675968,0.028728515625,-0.2729208984375,10.179470703124998,0.0,-0.0010652644360316954,0.0,358.70964138517763,0.17037500822157362,28.461759308669357
2026-09-29 19:22:15.194306816,-0.021546386718749998,-0.3112255859375,10.196229003906248,0.0,0.0,0.0,358.70931065481193,0.16995864671097513,28.46205959715345
2026-09-29 19:22:15.194306816,-0.021546386718749998,-0.2824970703125,10.184258789062499,0.0,0.0,0.0,358.7083614260988,0.16976644154667586,28.461755588018445
2026-09-29 19:22:15.209933312,-0.035910644531249994,-0.26573876953125,10.172288574218749,0.0,0.0,0.0,358.70757866780036,0.1692975984795481,28.461452041399063
2026-09-29 19:22:15.226002688,-0.0047880859375,-0.29925537109375,10.1746826171875,-0.0010652644360316954,0.0,0.0,358.7064646167286,0.16982345888969713,28.461128751435343
2026-09-29 19:22:15.226002688,-0.009576171875,-0.2681328125,10.201017089843749,0.0,0.0,0.0010652644360316954,358.70548610793895,0.1697396379148176,28.461428869535442
2026-09-29 19:22:15.241628416,-0.0047880859375,-0.25616259765625,10.20819921875,-0.0010652644360316954,-0.0010652644360316954,0.0,358.70463957504217,0.1692315257686946,28.46174321457241
2026-09-29 19:22:15.257260800,0.01675830078125,-0.2681328125,10.234533691406249,0.0,-0.0010652644360316954,0.0010652644360316954,358.7042280951932,0.16843829890926892,28.461752908987364
2026-09-29 19:22:15.257260800,0.0,-0.28010302734375,10.172288574218749,0.0,0.0,0.0,358.70362775136596,0.16812508476708102,28.461748136376965
2026-09-29 19:22:15.257260800,-0.00718212890625,-0.2824970703125,10.22495751953125,0.0,0.0,0.0,358.7037190804994,0.1680839623859029,28.462048746872924
2026-09-29 19:22:15.272878080,0.0,-0.2824970703125,10.17707666015625,-0.0010652644360316954,0.0,0.0,358.7023056350025,0.16759773215648965,28.46205031640396
2026-09-29 19:22:15.288502784,-0.00718212890625,-0.2824970703125,10.17707666015625,0.0,0.0,0.0,358.7017365192617,0.16741808687770574,28.462045612782564
2026-09-29 19:22:15.304155392,0.0047880859375,-0.28967919921874996,10.155530273437499,0.0,-0.0010652644360316954,0.0,358.7015513058807,0.16694005468267267,28.461743035177715
2026-09-29 19:22:15.304155392,0.011970214843749999,-0.28967919921874996,10.1938349609375,0.0,0.0010652644360316954,0.0,358.701121074146,0.16700802505086976,28.461425875398657
2026-09-29 19:22:15.319754752,0.0047880859375,-0.28967919921874996,10.1651064453125,0.0,0.0,0.0,358.70085492340274,0.16660542721414837,28.461421310944427
2026-09-29 19:22:15.335384320,-0.011970214843749999,-0.29446728515625,10.198623046875,0.0,0.0,0.0010652644360316954,358.70074424611494,0.1664546120637396,28.46202651715044
2026-09-29 19:22:15.351002880,-0.01915234375,-0.28728515624999995,10.14356005859375,0.0,0.0,0.0,358.7002288320805,0.16637646107058796,28.461716072539005
2026-09-29 19:22:15.366627328,-0.0143642578125,-0.27770898437499997,10.2034111328125,0.0,0.0,0.0010652644360316954,358.6994768734651,0.16571554408614744,28.46202995167243
2026-09-29 19:22:15.382252800,0.0143642578125,-0.29925537109375,10.18186474609375,0.0,0.0,0.0010652644360316954,358.69911211645115,0.16577816105175994,28.46202505192126
2026-09-29 19:22:15.382252800,0.0383046875,-0.27531494140624996,10.198623046875,0.0,0.0,0.0,358.6983600969925,0.1652450707368823,28.462026706776896
2026-09-29 19:22:15.382252800,0.0,-0.27531494140624996,10.196229003906248,0.0,0.0,0.0,358.6979217171532,0.16479076915736018,28.461418356598802
2026-09-29 19:22:15.382252800,0.00239404296875,-0.26095068359374995,10.196229003906248,0.0,0.0,0.0,358.69713907130404,0.1646031804017549,28.461413957329373
2026-09-29 19:22:15.397903616,0.0,-0.2729208984375,10.155530273437499,0.0,0.0,0.0,358.6968329322199,0.16406463409700914,28.461111042708755
2026-09-29 19:22:15.413503488,-0.021546386718749998,-0.29446728515625,10.244109863281249,0.0,0.0,0.0,358.69663087387573,0.16366645279694256,28.461113528304562
2026-09-29 19:22:15.413503488,-0.0047880859375,-0.028728515625,10.040616210937499,-0.06178533728983833,-0.010652644360316953,0.0,358.67781500269604,0.15997417170563796,28.460889570910872
2026-09-29 19:22:15.429152512,1.4890947265624999,-1.0845014648437499,7.275496582031249,-0.845819962209166,-0.017044230976507126,0.07456851052221868,358.3753008061624,0.14895444313315578,28.485579841032695
2026-09-29 19:22:15.429152512,0.7134248046874999,-2.3772846679687496,8.73346875,-4.25360089307456,-0.004261057744126781,0.06391586616190172,356.4541031476311,0.12412323279760172,28.526135628427724
2026-09-29 19:22:15.460730880,-0.49317285156249996,-1.3262998046874999,11.10596533203125,-4.181162911424404,-0.0692421883420602,0.8447546977731344,353.8666782865105,0.12212950982675502,28.874456435708755
2026-09-29 19:22:15.507605760,0.011970214843749999,-0.967193359375,10.93598828125,-2.8399949864604994,-0.14487596330031055,1.3358416027837459,352.0887010776569,0.1353273702926586,29.604050961244155
2026-09-29 19:22:15.507605760,-0.8187626953124999,-0.3064375,14.589297851562499,-2.160356276272278,-0.19813918510189532,1.377386915788982,350.7635306955546,0.14638962184113766,30.39472700248112
2026-09-29 19:22:15.554479616,-1.1252001953125,-0.9241005859374999,10.567305664062498,0.24181502697919482,-0.08096009713840883,1.352885833760253,350.647308599858,0.1717198797250017,31.196915616201956
2026-09-29 19:22:15.585730816,-0.6918784179687499,-2.499380859375,12.494510253906249,0.4048004856920442,-0.1576591365326909,1.1973572260996255,350.8289362182376,0.20762494852122027,31.91138113594535
2026-09-29 19:22:15.585730816,0.047880859374999994,-2.5807783203124997,11.474647949218749,1.1558119130943894,-0.09906959255094766,0.8372978467209125,351.370373702385,0.22382841754562696,32.4534288301455
2026-09-29 19:22:15.601355520,0.28967919921874996,-2.6525996093749997,10.45957373046875,2.002697139739587,-0.044741106313331204,0.47830373177823116,352.4002399396189,0.23761585205841945,32.77389209424381
2026-09-29 19:22:15.616980224,0.11970214843749999,-2.2934931640625,10.651097167968748,2.6802053210557455,-0.0031957933080950856,0.23648870479903636,353.81918021953015,0.24666662084353091,32.94258507012718
2026-09-29 19:22:15.632605440,0.07182128906249999,-2.12591015625,10.91922998046875,3.586745356118718,0.007456851052221867,0.14274543442824716,355.7262839758844,0.2573955147137705,33.03336031826954
2026-09-29 19:22:15.632605440,0.01675830078125,-1.24490234375,21.44823095703125,4.840561597328024,0.010652644360316953,0.07776430383031376,358.28259971493804,0.26526319071255056,33.08443760948841
2026-09-29 19:22:15.648230400,0.545841796875,2.5616259765624996,14.500718261718749,4.041613270304252,0.13954964112015208,-0.04048004856920442,0.8074641149455274,0.190541994893304,33.092396074366896
2026-09-29 19:22:15.648230400,-0.26095068359374995,1.8314428710937498,8.101441406249998,2.729207485113203,0.01384843766841204,-0.029827404208887468,2.563328926574015,0.19909937814900044,33.077517182589126
2026-09-29 19:22:15.648230400,-0.06942724609374999,1.66625390625,8.32408740234375,1.4221280221023131,0.0031957933080950856,0.007456851052221867,3.5823202024393805,0.20358989771212357,33.08077778671538
2026-09-29 19:22:15.648230400,0.7086367187499999,1.32390576171875,7.59629833984375,0.10439591473110614,-0.0021305288720633907,-0.011717908796348648,3.84473223439697,0.2034162329235508,33.078358015365346
2026-09-29 19:22:15.648230400,0.43332177734374994,1.1347763671875,11.398038574218749,-1.234641481360735,-0.1384843766841204,-1.530784994577546,3.3022714041407544,0.17287723978270356,32.51086002771783
2026-09-29 19:22:15.648230400,-1.0318325195312499,1.0222563476562498,10.189046874999999,0.1821602185614199,-0.1331580545039619,-1.6490293469770643,3.0950593425096002,0.152590327754444,31.450345602506793
2026-09-29 19:22:15.648230400,0.18673535156249998,0.7636997070312499,10.59842822265625,-0.025566346464760685,-0.035153726389045944,-0.5028048138069602,3.1796016805176324,0.1500884158520663,31.00489765196514
2026-09-29 19:22:15.648230400,2.4850166015624997,0.41895751953125,11.072448730468748,0.1757686319452297,-0.010652644360316953,-0.22264026713062432,3.232334992204332,0.14501301741879774,30.92767669023643
2026-09-29 19:22:15.648230400,-2.8393349609375,4.96045703125,9.525896972656248,0.618918637334415,0.035153726389045944,-0.21624868051443413,3.5618894878306144,0.1609883778803416,30.609855902902876
2026-09-29 19:22:15.648230400,-0.01675830078125,0.39022900390625,10.284808593749998,0.35260252832649114,0.10759170803920122,0.9704559012248744,3.8429103632949633,0.2023998684128412,31.09770091528267
2026-09-29 19:22:15.648230400,-0.09815576171875,1.446001953125,10.2991728515625,0.35260252832649114,0.2673813734439555,1.009870685358047,4.0441456696014875,0.2938897936581134,31.671813478145992
2026-09-29 19:22:15.664354304,0.06942724609374999,0.32319580078125,10.306354980468749,0.5539375067364816,0.41758365892442456,1.05567705610741,4.339806091960003,0.46272850535947485,32.29071286788439
2026-09-29 19:22:15.679998720,-0.16997705078124997,-0.38065283203124994,9.83712255859375,0.7627293361986939,0.5784385887652105,0.856472606569483,4.7459870572347,0.7344154315000389,32.84014028767212
2026-09-29 19:22:15.695642624,0.17476513671875,0.22264599609375,10.533789062499999,0.8522115488253562,0.6743123880080631,0.6199839017704466,5.214882274626117,1.0733992006779125,33.255580033902454
2026-09-29 19:22:15.711249920,0.05266894531249999,0.34474218749999996,12.295804687499999,1.0610033782875685,0.6668555369558412,0.46339002967378745,5.789391209678346,1.4302074960691922,33.576297622637
2026-09-29 19:22:15.711249920,-0.03112255859375,0.28967919921874996,13.253421874999999,1.4966965326245318,0.37390781704712506,0.43995421208109015,6.5732350076114825,1.660434432190649,33.85260634100145
2026-09-29 19:22:15.711249920,0.81158056640625,0.14124853515625,13.217511230468748,2.06128668372133,0.07243798165015528,0.40160469238394914,7.669542624331264,1.700394312658035,34.105402240775625
2026-09-29 19:22:15.711249920,-0.043092773437499995,1.12998828125,14.488748046875,1.8439727387708644,0.14594122773634224,0.012783173232380343,8.769199782967725,1.7452682655839937,34.18342704802812
2026-09-29 19:22:15.726873856,-0.73018310546875,1.6471015624999998,16.317796875,1.5105449702929439,-0.0021305288720633907,-0.20453077171808548,9.657718577348303,1.7962843912860667,34.08884659762125
2026-09-29 19:22:15.742530048,-0.36628857421875,2.19054931640625,17.608186035156248,1.5190670857811974,-0.4751079384701361,-0.02024002428460221,10.500486340264992,1.610660225025898,34.00457914241667
2026-09-29 19:22:15.812039680,0.11012597656249999,2.9877656249999998,17.421450683593747,1.7683389638126141,-1.024784387462491,0.29614351321681126,11.467696253288032,1.0816348296218956,34.030892892372954
2026-09-29 19:22:15.821541888,-0.026334472656249996,3.31574951171875,17.284990234374998,1.901497018316576,-1.4636733351075493,0.41651839448839284,12.53791924515882,0.26903805945179093,34.092395720148744
2026-09-29 19:22:15.837175296,-0.162794921875,3.3468720703124997,17.41187451171875,1.9707392066586362,-1.8535601186951498,0.422909981104583,13.655966696758128,359.23185957902183,34.10035294366764
2026-09-29 19:22:15.837175296,-0.076609375,2.9542490234375,17.739858398437498,1.9654128844784777,-2.164617334016405,0.39947416351188575,14.775854833427147,358.01968595992537,34.031522404846214
2026-09-29 19:22:15.837175296,-0.06942724609374999,2.595142578125,16.487773925781248,1.936650744705622,-2.420280798664012,0.46019423636569234,15.879508261146254,356.65495112433604,33.913481085061065
2026-09-29 19:22:15.837175296,-0.48599072265625,2.62147705078125,16.57395947265625,1.18137825955915,-1.7182715353191245,0.5773733243291789,16.66539411093539,355.5026699643643,33.90204859525501
2026-09-29 19:22:15.837175296,-0.15321875,3.3205375976562497,18.515528320312498,0.5720470021490204,-1.5211976146532609,0.782969360483296,17.026420011516493,354.57995564301274,34.05266370123519
2026-09-29 19:22:15.837175296,0.47641455078124995,4.10099560546875,17.88110693359375,0.28122981111236756,-1.9185412492930831,0.9353021748358284,17.184661653355764,353.454509175682,34.24632384080749
2026-09-29 19:22:15.837175296,0.5003549804687499,4.979609375,16.291462402343747,0.010652644360316953,-1.9707392066586362,1.0620686427236001,17.194541084164683,352.20858971426577,34.473965348483276
2026-09-29 19:22:15.868422400,0.51950732421875,4.510376953124999,15.013043457031248,-0.5273058958356892,-1.5222628790892925,0.957672727992494,16.9399933340631,351.1505843561176,34.7538844794277
2026-09-29 19:22:15.868422400,0.7684877929687499,3.8807436523437495,15.127957519531249,-1.1025486912928046,-1.0056096276139204,0.41225733674426607,16.35740273302245,350.46473963185616,34.882936011675675
2026-09-29 19:22:15.868422400,0.50514306640625,3.5407895507812497,15.484669921874998,-1.3539510981962848,-0.7680556583788523,-0.16724651645697616,15.624149499214566,350.04243607391123,34.73494540361024
2026-09-29 19:22:15.868422400,-0.067033203125,3.3277197265624996,14.974738769531248,-1.3124057851910487,-0.7265103453736161,-0.5486111845563231,14.918954071292406,349.73836529315935,34.36289610035367
2026-09-29 19:22:15.899671552,-0.6870903320312499,2.9781894531249997,13.81123388671875,-1.167529821890738,-0.7467503696582184,-0.7467503696582184,14.310470234660647,349.46151240526507,33.856467049313224
2026-09-29 19:22:15.899671552,-1.0198623046875,3.0500107421875,13.143295898437499,-0.9384979681439235,-0.6860302968044117,-0.8926915973945606,13.836763669875893,349.22364772947424,33.27250452173081
2026-09-29 19:22:15.915296256,-1.2329321289062498,3.9693232421874995,12.803341796875,-0.5890912331255275,-0.7105313788331408,-1.0514159983632831,13.571520639597885,349.0205089986681,32.60363107517004
2026-09-29 19:22:15.915296256,-1.2472963867187499,5.8079482421875,13.006835449218748,-0.25992452239173364,-1.0844391958802657,-0.9672601079167793,13.526621027588531,348.66076183543515,31.890573496317977
2026-09-29 19:22:15.915296256,-0.8450971679687499,6.954694824218749,13.66280322265625,0.16937704532903955,-1.9249328359092734,-0.41971418779648795,13.706510534487562,347.84874237026287,31.32293392206229
2026-09-29 19:22:15.930922240,-0.229828125,6.4208232421875,12.796159667968748,0.5848301753814007,-3.170226961630325,0.24714134915935332,14.103044637682183,346.2931637902185,30.96131116284115
2026-09-29 19:22:15.946546688,0.40219921875,5.592484375,11.038932128906248,0.7968177981517081,-4.125769160750756,0.7787083027391692,14.624827056279205,344.05826597872124,30.74959931452931
2026-09-29 19:22:15.962175488,1.3933330078125,4.862301269531249,10.394934570312499,0.8245146734885321,-4.591289719296607,1.2357067457967665,15.141194569165961,341.43484381773715,30.701727835451102
2026-09-29 19:22:15.962175488,3.3540541992187496,4.2159096679687496,7.608268554687499,0.36538570155887146,-4.546548612983275,1.5105449702929439,15.433734880593423,338.6750214775122,30.812452100484464
2026-09-29 19:22:15.977797376,5.35068603515625,5.075371093749999,9.152426269531249,-0.7957525337156763,-3.3449303291395234,1.2463593901570835,15.089478987003949,336.44340157453905,31.001038052565885
2026-09-29 19:22:15.977797376,5.527845214843749,4.9556689453125,11.117935546875,-1.3752563869169185,-2.818689697739866,1.2847089098542246,14.267930894672196,334.6559431204519,31.282762881241126
2026-09-29 19:22:15.977797376,6.339425781249999,3.993263671875,11.043720214843749,-1.5403723745018314,-2.786731764658915,1.2974920830866048,13.248082757543306,332.92734596681646,31.669757254259007
2026-09-29 19:22:16.009047808,6.77274755859375,-0.14364257812499998,8.56827978515625,-1.2495551834651786,-2.751578038269869,0.7733819805590108,12.36940825377482,331.2466595157615,31.870747066832216
2026-09-29 19:22:16.040296960,7.045668457031249,3.3875708007812495,7.289860839843749,-0.3408846195301425,-2.108158318906725,-0.5187837803474356,12.272561251895826,329.97460604122944,31.41054161951558
2026-09-29 19:22:16.040296960,6.78711181640625,5.690640136718749,5.0250961914062495,0.6775081813161582,-0.978978016713128,-1.153681384222326,12.980059463769782,329.34639608281265,30.53413867750234
2026-09-29 19:22:16.040296960,6.052140625,7.3138012695312495,4.16324072265625,1.6713999001337299,0.4644552941098191,-1.1728561440708964,14.251903081565672,329.53928023070597,29.744150017637224
2026-09-29 19:22:16.040296960,5.295623046875,8.4701240234375,2.901580078125,2.461826111669248,1.8237327144862623,-0.7307714031177429,15.781864814938483,330.46834157335894,29.403869870540827
2026-09-29 19:22:16.040296960,4.7425991210937495,9.135667968749999,2.2264599609375,3.0530478736668387,3.0647657824631875,0.07243798165015528,17.346849396961726,331.98830334045687,29.784129555203837
2026-09-29 19:22:16.055921664,4.4792543945312495,9.1883369140625,2.4754404296874997,3.275688140797463,4.146009185035358,0.7819040960472643,18.786854424657804,333.97631703926584,30.894705387955952
2026-09-29 19:22:16.071546880,4.22069775390625,9.0829990234375,3.4713623046874997,3.094593186672075,4.937500661006908,1.3326458094756508,19.972618833455872,336.3008031766879,32.562951586108085
2026-09-29 19:22:16.087171328,3.782587890625,8.709528320312499,4.809632324218749,2.506567217982579,5.214469414375149,1.8152105989980087,20.788604929356428,338.72850518103957,34.6376500751734
2026-09-29 19:22:16.087171328,3.4809384765624998,8.27620654296875,6.676985839843749,1.4391722530788202,4.780906788910248,2.2722090420556063,21.05955251899279,340.91991316179553,36.920375461160134
2026-09-29 19:22:16.102796288,3.6341572265624995,7.4550498046875,8.2402958984375,0.26844663787998724,3.8892804559517193,2.678074792183682,20.710381522811044,342.6032726292648,39.24767735580717
2026-09-29 19:22:16.102796288,3.8759555664062497,6.01622998046875,9.76051318359375,-0.7414240474780599,2.6652916189513016,2.9742183054004934,19.80394805215942,343.62618426364565,41.49018335343945
2026-09-29 19:22:16.118449664,3.5671240234374997,5.084947265625,10.639126953124999,-1.2644688855696222,1.2048140771518474,3.139334292985406,18.583774006103607,343.88985912417405,43.54095180802725
2026-09-29 19:22:16.134046976,3.1721069335937497,4.4792543945312495,10.51463671875,-1.1909656394834354,-0.14913702104443735,3.3619745601160305,17.350720954892175,343.40192695490987,45.44443152651993
2026-09-29 19:22:16.134046976,2.77948388671875,3.7347070312499997,9.434923339843749,-0.7329019319898064,-1.3081447274469218,3.6176380247636373,16.32161150993592,342.25322473645326,47.30287851086466
2026-09-29 19:22:16.181594624,2.8896098632812497,2.6142949218749996,7.495748535156249,-0.2492718780314167,-2.2690132487475108,3.8370824985861662,15.534084029503182,340.5323704539463,49.160179463272186
2026-09-29 19:22:16.181594624,2.8728515624999997,1.3454521484375,5.388990722656249,0.0010652644360316954,-2.705771667520506,4.070375410077108,14.827743144457816,338.4688690354347,51.1039555371335
2026-09-29 19:22:16.229047296,2.8249707031249995,-0.32558984375,4.089025390624999,0.32490565298966706,-2.6098978682776535,4.195011349092816,14.15008209033138,336.3894518472415,53.20378986475599
2026-09-29 19:22:16.229047296,5.43208349609375,-3.9597470703124995,-7.414351074218749,0.9001484484467825,-2.087918294622123,4.010720601659333,13.660568333512558,334.5391987555305,55.363269849081
2026-09-29 19:22:16.229047296,3.0595869140625,-1.7308930664062498,1.5776743164062499,1.5574166054783385,0.049002164057457984,3.2469260010246073,13.52169584881957,333.7637013090231,57.43988930420887
2026-09-29 19:22:16.244667136,4.912576171874999,-2.06605908203125,1.6614658203125,1.8141453345619771,0.3749730814831567,3.030677320510173,13.6578792693447,333.5242583645884,59.4117353807552
2026-09-29 19:22:16.244667136,4.90539404296875,-2.26715869140625,0.13885449218749998,1.6479640825410327,0.7989483270237715,2.756904360450027,13.772164713501347,333.46102957051846,61.287491026451754
2026-09-29 19:22:16.244667136,4.8670893554687495,-2.4227714843749997,-0.055062988281249996,1.058872849415505,1.415736435486123,2.458630318361153,13.673384664955028,333.77311371791734,63.06692367453606
2026-09-29 19:22:16.275915008,4.644443359375,-2.9853715820312496,0.775669921875,0.10226538585904274,1.789644252533248,2.128398343191327,13.127548765370102,334.3769206418553,64.70586547620499
2026-09-29 19:22:16.291563008,4.08184326171875,-3.8807436523437495,1.16589892578125,-0.23116238261887787,2.101766732290535,1.61494088502405,12.375708685376303,335.239623831052,66.09364048129673
2026-09-29 19:22:16.291563008,3.7873759765624997,-3.2391401367187496,0.6320273437499999,0.25885925795570197,2.6397252724865408,0.9384979681439235,11.965917317233506,336.45896477108533,67.12337080256313
2026-09-29 19:22:16.291563008,3.2558984374999995,-2.70766259765625,-0.08618554687499999,1.1515508553502627,3.6101811737114153,0.3898867835876005,12.166833600740473,338.228982921834,67.87966366712068
2026-09-29 19:22:16.291563008,2.93749072265625,-0.5554179687499999,-0.19870556640624998,1.7246631219353146,5.001416527168809,-0.02769687533682408,12.867656016019662,340.7868316844262,68.55063284491565
2026-09-29 19:22:16.291563008,1.70216455078125,0.61526904296875,2.2743408203124997,0.877777895290117,6.060289376584315,-0.07669903939428206,13.291798552754559,344.02806416024987,69.28764676830865
2026-09-29 19:22:16.291563008,0.74933544921875,-0.7445473632812499,5.247742187499999,-0.14913702104443735,6.492786737613183,0.1310275256318985,13.11512023043225,347.59722623916946,70.20523431309118
2026-09-29 19:22:16.291563008,0.31601367187499996,-1.7763798828125,7.52687109375,-0.6700513302639364,6.14551053146685,0.07030745277809189,12.59497760876885,351.09743552118033,71.0899544064167
2026-09-29 19:22:16.322789888,0.0909736328125,-0.80679248046875,8.81726025390625,-0.9086705639350361,5.211273621067053,-0.21731394495046583,11.990909276558257,354.18547392772484,71.68704623376924
2026-09-29 19:22:16.338438400,-0.8977661132812499,0.30883154296875,9.66475146484375,-0.965129579044716,4.04054800586822,-0.3408846195301425,11.390975468312174,356.67236495054954,72.00980952863185
2026-09-29 19:22:16.354041344,-1.7213168945312498,-0.86424951171875,9.604900390625,-0.9800432811491596,2.9486519589357325,-0.30892668644919163,10.805456914420589,358.52684788989603,72.18860092597532
2026-09-29 19:22:16.354041344,-1.6566777343749999,-2.26715869140625,9.3511318359375,-1.1142666000891532,2.2849922152879865,-0.5145227226033088,10.158125973555563,359.9604264597159,72.19146880425373
2026-09-29 19:22:16.369664000,-1.85538330078125,-2.5568378906249998,8.5754619140625,-1.3358416027837459,2.016545577407999,-0.8639294576217049,9.379892696486317,1.2182616572976246,71.95251013618564
2026-09-29 19:22:16.369664000,-2.4036191406249996,-1.9774794921874999,8.422243164062499,-1.6522251402851593,2.0112192552278407,-1.1238539800134386,8.419864106486049,2.4671901073998144,71.52453139519358
2026-09-29 19:22:16.369664000,-3.1888652343749997,-0.7182128906249999,9.21227734375,-1.737446295167695,1.9781960577108582,-1.2314456880526397,7.356926835293878,3.7224964921286063,70.9886819840265
2026-09-29 19:22:16.385289728,-3.6509155273437495,0.20828173828125,9.45407568359375,-1.349690040452158,1.7704694926846776,-1.1249192444494702,6.454893407607692,4.873669630103033,70.44853857577726
2026-09-29 19:22:16.385289728,-3.5479716796874996,1.9487509765624997,7.196493164062499,-0.41971418779648795,1.6064187695357965,-0.9086705639350361,6.001586011878895,5.894862086729395,69.99492579399934
2026-09-29 19:22:16.400914688,-3.763435546875,1.829048828125,8.10862353515625,0.26098978682776536,1.9867181731991117,-0.46019423636569234,6.080699027727838,7.0339143985756705,69.78105043523257
2026-09-29 19:22:16.416539136,-3.6987963867187497,2.5448676757812496,8.687981933593749,0.4463457986972803,2.045307717180855,-0.10439591473110614,6.322088990044809,8.247770006801083,69.79489284816891
2026-09-29 19:22:16.432164608,-4.11057177734375,2.8872158203124996,8.709528320312499,1.0439591473110614,1.925998100345305,0.48149952508632626,6.885164736316792,9.366940837679254,70.11450529896551
2026-09-29 19:22:16.432164608,-4.230273925781249,2.39404296875,7.902735839843749,1.8588864408753083,1.8077537479457868,1.0620686427236001,7.97389799106871,10.373166905246503,70.78917417722187
2026-09-29 19:22:16.447789824,-3.5767001953124997,0.9767695312499999,7.091155273437499,2.455434525053058,1.7033578332146808,1.401887997817711,9.488950910411685,11.261675964912913,71.71492418368075
2026-09-29 19:22:16.463416320,-2.5017749023437497,-0.69666650390625,6.360972167968749,2.7419906583455838,1.6937704532903954,1.4423680463869155,11.224976504775716,12.083164534347736,72.72523444361262
2026-09-29 19:22:16.463416320,-1.9367807617187498,-2.70766259765625,5.985107421874999,2.6972495520322526,1.8322548299745158,1.2218583081283545,12.970178973169851,12.943583245918516,73.68122655830274
2026-09-29 19:22:16.463416320,-1.9679033203124998,-4.80005615234375,6.040170410156249,2.428802914152265,2.093244616802281,0.6562028925955243,14.534306870232141,13.963527295690966,74.42651224387896
2026-09-29 19:22:16.479040512,-2.31503955078125,-5.1711328125,6.31309130859375,2.164617334016405,2.4841966648259133,-0.33023197516982555,15.825270286661228,15.29748199731109,74.74257462296657
2026-09-29 19:22:16.494664960,-2.8536992187499997,-3.7706176757812497,6.4160351562499995,1.9792613221468898,2.9465214300636693,-1.3859090312772355,16.86046845853251,17.046726418952698,74.5484704096221
2026-09-29 19:22:16.494664960,-4.012416015625,-1.8482011718749998,7.64896728515625,1.7608821127603922,3.3790187910925376,-2.1805963005568803,17.67596838336226,19.20001752838212,73.97006224503642
2026-09-29 19:22:16.525913856,-5.779219726562499,-0.12209619140624998,8.194809082031249,1.3401026605278727,3.7742318968602966,-2.766491740374313,18.181316712413977,21.683668408114624,73.1136902368648
2026-09-29 19:22:16.525913856,-7.66811962890625,1.9726914062499998,9.944854492187499,0.6476807771072707,4.0149816594034595,-2.9827404208887467,18.242076817748593,24.407044370116445,72.1263968280684
2026-09-29 19:22:16.541560576,-8.288176757812499,3.1194379882812497,11.929516113281249,0.09693906367888427,3.6772928331814123,-2.7313380139852668,17.94594029217289,27.014393077935193,71.17484566511858
2026-09-29 19:22:16.541560576,-8.161292480468749,3.8998959960937496,12.762643066406248,-0.3131877441933184,2.5960494306092414,-2.2881880085960815,17.382955010673786,29.032177928390347,70.25431852971964
2026-09-29 19:22:16.572789504,-7.976951171874999,3.993263671875,12.999653320312499,-0.6029396707939395,1.045024411747093,-1.5883092741232576,16.653629316027516,30.129395831010214,69.41567740719093
2026-09-29 19:22:16.619663360,-7.258738281249999,3.3540541992187496,10.433239257812499,-0.6135923151542565,-0.33023197516982555,-0.9747169589690012,15.939359870601237,30.29825337077098,68.70503588683965
2026-09-29 19:22:16.635288320,-10.43563330078125,1.7356811523437499,-2.461076171875,-0.2982740420888747,-0.3877562547155371,-0.7563377495825037,15.408873643195735,30.143076353126016,68.12102129652727
2026-09-29 19:22:16.635288320,-7.548417480468749,3.3396899414062498,6.77274755859375,0.807470442512025,1.6479640825410327,-0.8096009713840884,15.602645164814144,31.063710109761473,67.82030578637287
2026-09-29 19:22:16.635288320,-6.988211425781249,2.0923935546875,11.424373046874999,1.4753912439038979,1.7779263437368995,-0.46871635185394595,16.362251068884174,32.17812285170694,67.8080778043194
2026-09-29 19:22:16.635288320,-6.59558837890625,-0.86424951171875,14.819125976562498,1.6554209335932544,0.5848301753814007,-0.2822950755483993,17.265510427632375,32.74574361533901,67.78842301936656
2026-09-29 19:22:16.635288320,-6.85893310546875,0.08857958984374999,12.77461328125,1.4285196087185035,-1.0961571046766145,-0.5731122665850521,17.8272549595859,32.42613805609282,67.28473303459874
2026-09-29 19:22:16.635288320,-7.440685546875,2.0445126953124997,8.659253417968749,0.41971418779648795,-1.729989444115473,-0.9566074635564623,17.714394516038983,31.668593306190427,66.36125873828895
2026-09-29 19:22:16.666568192,-6.674591796874999,4.1512705078125,12.05400634765625,-0.5603290933526717,-2.049568774924982,-0.9811085455851913,16.984345145559537,30.81925279763026,65.33400696567753
2026-09-29 19:22:16.682274048,-6.789505859375,4.3140654296875,7.3305595703124995,-1.1366371532458188,-2.9454561656276375,-0.5123921937312454,15.944544594091745,29.404770928922566,64.41258417762427
2026-09-29 19:22:16.713529088,-5.9994716796875,3.25350439453125,6.17423681640625,-1.0844391958802657,-2.471413491593533,-0.08309062601047223,15.04525373996314,27.9938273493188,63.850660164653355
2026-09-29 19:22:16.713529088,-5.743309082031249,2.8608813476562496,5.2046494140625,-0.7318366675537746,-1.6330503804365888,0.17044230976507124,14.480795556759396,26.966853584890707,63.62400248314689
2026-09-29 19:22:16.713529088,-5.5350273437499995,2.997341796875,7.127065917968749,-0.2013349784099904,-0.8575378710055147,0.3185140663734769,14.30962935677467,26.387430994602152,63.64885076483201
2026-09-29 19:22:16.729154048,-5.1663447265624995,4.053114746093749,8.455759765624999,0.23968449810713144,-0.6103965218461614,0.447411063133312,14.476138241653054,25.985220103148517,63.80345136716472
2026-09-29 19:22:16.729154048,-4.41700927734375,4.1991513671875,8.48448828125,0.534762746887911,-0.7115966432691725,0.8127967646921835,14.913013409708476,25.513826439131954,64.14316758903361
2026-09-29 19:22:16.729154048,-3.4809384765624998,3.0547988281249996,7.1366420898437495,0.5890912331255275,-0.7893609470994862,1.1036139557288362,15.49099041004948,24.921334409996067,64.66142355055246
2026-09-29 19:22:16.729154048,-2.6956923828124997,2.31982763671875,6.394488769531249,0.5677859444048936,-0.5816343820733056,1.1302455666296287,16.067618534766503,24.384652864757495,65.24324769733497
2026-09-29 19:22:16.729154048,-2.01339013671875,2.1211220703125,6.808658203125,0.7893609470994862,-0.28549086885649433,1.076982344828044,16.72326578999198,24.00708292973313,65.83845979507218
2026-09-29 19:22:16.729154048,-1.1754750976562498,1.6207670898437498,6.870903320312499,1.248489919029147,-0.021305288720633905,0.99282645438154,17.609814658874377,23.772137810136602,66.43227664181639
2026-09-29 19:22:16.744804864,-0.58654052734375,1.9631152343749998,6.688956054687499,1.5180018213451658,0.2641855801358604,0.7861651537913911,18.672276386342954,23.70526857724255,66.96936960853921
2026-09-29 19:22:16.760497920,-0.51711328125,2.3437680664062497,7.019333984375,1.0716560226478855,0.46871635185394595,0.5177185159114039,19.55048197017743,23.800551354468304,67.40360846344502
2026-09-29 19:22:16.776123136,-1.1874453125,2.4275595703125,8.39112060546875,0.05326322180158476,0.4516721208774388,0.22903185374681448,19.844862420127082,23.971839279226398,67.67937744340816
2026-09-29 19:22:16.776123136,-3.2032294921874995,1.79792626953125,1.22335595703125,-0.3174488019374452,0.48149952508632626,-0.4133226011802978,19.610973718516604,24.23466710992323,67.66342901921746
2026-09-29 19:22:16.807373312,-4.50080078125,4.5151650390624996,9.1117275390625,-0.06178533728983833,1.915345455984988,-0.3419498839661742,19.665178191048795,25.222984231351482,67.73622480298732
2026-09-29 19:22:16.807373312,-4.7162646484375,5.652335449218749,11.314247070312499,0.46871635185394595,1.587244009687226,-0.11398329465539139,19.978221849316398,26.185187619092797,68.00530582179567
2026-09-29 19:22:16.822997248,-5.896527832031249,4.740205078124999,13.399458496093748,0.2492718780314167,0.7243798165015528,0.26312031569982874,20.339493869829905,26.65114633653536,68.3352860389842
2026-09-29 19:22:16.838622976,-7.818944335937499,6.5022207031249994,14.060214355468748,-0.39947416351188575,-0.41758365892442456,0.4026699568199808,20.280312971315556,26.4998444898074,68.51711574818877
2026-09-29 19:22:16.838622976,-8.07510693359375,3.95735302734375,10.3470537109375,-0.8159925580002786,-1.0897655180604242,0.8415589044650392,19.968085119113297,25.817340552719628,68.75195158616035
2026-09-29 19:22:16.838622976,-5.06340087890625,3.46418017578125,8.848382812499999,0.4569984430575973,-1.2847089098542246,-0.7989483270237715,19.75488733136883,25.21707091620499,68.3609871045199
2026-09-29 19:22:16.838622976,-5.178314941406249,3.5767001953124997,9.396618652343749,1.2751215299299392,-0.9672601079167793,-0.3589941149426813,20.12997794294413,24.787016051256487,67.81806499231965
2026-09-29 19:22:16.846089984,-4.52234716796875,3.6892202148437496,8.59222021484375,2.073004592517679,-0.7680556583788523,-0.1374191122480887,21.113503292781253,24.391758195217296,67.52946965439696
2026-09-29 19:22:16.870224896,-3.7299189453125,2.6430234374999997,6.89723779296875,1.8887138450841958,-0.7073355855250457,0.009587379924285258,22.19120679676317,24.01543249471009,67.34908569416547
2026-09-29 19:22:16.885850112,-4.06269091796875,2.5328974609375,8.249872070312499,0.9523464058123355,-0.5688512088409253,0.09374327037078918,22.809718146350757,23.69034941951905,67.24501098726205
2026-09-29 19:22:16.885850112,-3.8927138671874997,2.89439794921875,8.5419453125,0.6348976038748904,-0.45806370749362896,0.16405072314888108,23.18670625402088,23.400050093650094,67.20077465363512
2026-09-29 19:22:16.917099264,-3.21998779296875,2.6262651367187497,8.836412597656249,0.3898867835876005,-0.20879182946221228,0.17470336750919802,23.451245913516722,23.2083736527699,67.22403496207329
2026-09-29 19:22:16.917099264,-2.9446728515625,2.3222216796875,9.087787109374998,0.25885925795570197,0.11824435239951818,0.14061490555618378,23.64346127368419,23.186223333527114,67.3193553459707
2026-09-29 19:22:16.932724992,-3.2654746093749996,2.5520498046875,7.854854980468749,0.08948221262666241,0.21411815164237075,-0.06285060172587002,23.727398790921963,23.2805543317798,67.36243936160616
2026-09-29 19:22:16.948349440,-3.6533095703124996,2.7483613281249997,9.2170654296875,-0.6487460415433024,0.37603834591918844,-0.12357067457967666,23.467508945463447,23.481739187301795,67.37134269305572
2026-09-29 19:22:16.948349440,-3.43066357421875,3.0931035156249997,8.197203125,-0.8138620291282151,0.2450108202872899,-0.16937704532903955,23.001684601955347,23.660753293497905,67.34484743559588
2026-09-29 19:22:17.026473984,-3.437845703125,3.5216372070312496,8.85556494140625,-0.8362325822848808,-0.004261057744126781,-0.2940129843447479,22.450278788807672,23.745257105284644,67.21553652052194
2026-09-29 19:22:17.057723648,-2.7723017578124995,3.2918090820312496,9.298462890624998,-0.7190534943213943,-0.3312972396058572,-0.43782368320902676,21.89621253773406,23.692239394172752,66.92453648301613
2026-09-29 19:22:17.057723648,-2.1306982421875,3.2080175781249998,9.142850097656249,-0.5060006071150552,-0.779773567175201,-0.6593986859036194,21.354626922846865,23.446635635706055,66.41982762286885
2026-09-29 19:22:17.073349888,-2.480228515625,3.20083544921875,9.846698730468749,1.1377024176818507,-1.6863136022381737,-0.8341020534128174,21.287679800986574,22.864562264570555,65.64579749104416
2026-09-29 19:22:17.088975360,-2.50656298828125,3.6461274414062497,8.49167041015625,0.37284255261109334,-2.122006756575137,-0.9598032568645575,21.494900659152837,21.90820842965709,64.62178055368761
2026-09-29 19:22:17.120695552,-4.4672841796875,4.452919921875,9.308039062499999,0.28655613329252605,-2.2487732244629086,-1.0109359497940789,21.166689041273163,20.936816555704272,63.54373374409766
2026-09-29 19:22:17.120695552,-4.69950634765625,3.13859033203125,8.63052490234375,0.35366779276252286,-2.3616912546822686,-0.8820389530342437,21.039050929839526,19.885011548273756,62.52404816160203
2026-09-29 19:22:17.120695552,-3.9405947265625,4.452919921875,7.883583496093749,0.1757686319452297,-2.691923229852094,-0.9811085455851913,20.812278211851833,18.686640420888637,61.39792148066168
2026-09-29 19:22:17.120695552,-3.4713623046874997,2.8536992187499997,9.303250976562499,0.011717908796348648,-3.069026840207314,-0.6508765704153658,20.5254293286855,17.23290492962247,60.34397300941214
2026-09-29 19:22:17.151949312,-3.5048789062499996,6.586012207031249,2.09957568359375,1.6000271829196062,-4.257861950818686,-1.0269149163345543,20.611418877048127,15.372678538478615,59.062937236441904
2026-09-29 19:22:17.151949312,-0.47402050781249994,6.183812988281249,10.133983886718749,-0.23755396923506805,-4.174771324808214,-0.6391586616190171,20.55148428645498,13.224267805395485,57.79318049886889
2026-09-29 19:22:17.167574272,-2.6669638671874996,3.8591972656249998,8.987237304687499,-0.019174759848570515,-4.121508103006629,0.10120012142301105,20.283713552003825,11.005249645220044,56.90632675599198
2026-09-29 19:22:17.167574272,-1.27602490234375,0.8259448242187499,8.6903759765625,-0.12783173232380343,-3.919107860160607,0.507065871551087,20.181173475589656,8.774731480601597,56.339439997888036
2026-09-29 19:22:17.183200768,-4.0387504882812495,1.6638598632812498,9.509138671874998,-0.2663161090079238,-3.459978888230946,0.3185140663734769,19.9221229331644,6.763285646585971,55.83384574094737
2026-09-29 19:22:17.183200768,-0.4979609375,2.6142949218749996,10.6247626953125,-0.39840889907585403,-2.6290726281262238,0.7552724851464719,19.680019203263782,5.13499556936298,55.601388172417536
2026-09-29 19:22:17.183200768,-0.5027490234374999,3.5455776367187495,10.63673291015625,-0.044741106313331204,-1.8993664894445126,1.1430287398620091,19.603238106793174,3.80935455458496,55.76787008950627
2026-09-29 19:22:17.183200768,-0.6583618164062499,3.0021298828124996,9.470833984375,0.18642127630554667,-1.1089402779089947,1.5925703318673845,19.719993261491155,2.815412060187307,56.31994351466918
2026-09-29 19:22:17.198825984,-1.38136279296875,3.64133935546875,9.86585107421875,-0.45593317862156557,1.3464942471440629,2.0112192552278407,18.940458757573545,2.4273455163613633,60.346180078313104
2026-09-29 19:22:17.198825984,-0.49317285156249996,3.4091171874999997,9.7437548828125,-0.5613943577887034,1.719336799755156,2.11135411221482,18.705175583097336,2.945345600151146,61.79180398611166
2026-09-29 19:22:17.198825984,0.0,10.849802734374999,10.770799316406249,-1.8801917295959423,1.7821874014810262,2.6748789988755868,18.049024575930492,3.4774565750010207,63.42831539255265
2026-09-29 19:22:17.198825984,-5.62839501953125,-11.644625,-8.35281591796875,-5.232578909787687,2.6035062816614634,4.256796686382654,15.587691276661571,3.9088906350827215,66.03500035779649
2026-09-29 19:22:17.198825984,-1.560916015625,1.3526342773437499,9.3990126953125,-0.8554073421334513,2.0431771883087917,1.4935007393164368,14.30629240075843,5.180229961576716,67.62225194364578
2026-09-29 19:22:17.198825984,-0.8690375976562499,3.8544091796874995,10.773193359374998,-0.011717908796348648,2.076200385825774,1.3134710496270803,14.369754137601289,6.146696778139981,68.65115203980778
2026-09-29 19:22:17.198825984,-0.07182128906249999,2.45389404296875,9.947248535156248,-0.2535329357755435,1.8333200944105477,0.99282645438154,14.415432900958521,7.044008383101417,69.53090316646949
2026-09-29 19:22:17.230098688,0.0,3.0595869140625,9.4181650390625,-0.4303668321568049,1.450890161875169,0.8404936400290076,14.252439916726798,7.76777156793537,70.24333226662151
2026-09-29 19:22:17.230098688,-0.7445473632812499,4.2949130859375,9.44449951171875,-0.5294364247077525,1.0354370318228079,0.7009439989088555,14.040343149910932,8.279339076790853,70.81909146197172
2026-09-29 19:22:17.245710848,-1.120412109375,3.7203427734375,9.8107880859375,-0.2535329357755435,0.7169229654493309,0.4506068564414071,13.91355474904087,8.641194579698222,71.22898300583138
2026-09-29 19:22:17.276948992,-0.9576171874999999,4.04353857421875,8.999207519531248,-0.36538570155887146,0.597613348613781,0.3408846195301425,13.810158999095034,8.92892432488589,71.5130694075026
2026-09-29 19:22:17.308199424,-0.7684877929687499,3.4857265624999996,9.422953125,-0.9225190016034481,0.5805691176372739,0.395213105767759,13.431102079095123,9.201265556782861,71.80455994311659
2026-09-29 19:22:17.308199424,-0.22743408203124998,1.7476513671874998,9.65996337890625,-0.9321063815277334,0.33236250404188894,0.3099919508852233,12.932912527539996,9.375881179630234,72.05420692255883
2026-09-29 19:22:17.308199424,-0.56738818359375,0.70145458984375,10.124407714843748,-1.0705907582118537,-0.08415589044650393,0.21411815164237075,12.384054913592177,9.346368236029631,72.18501329181984
2026-09-29 19:22:17.308199424,-0.32558984375,4.31167138671875,8.417455078125,-1.0684602293397905,-0.5933522908696542,0.0458063707493629,11.777832375677216,9.063591606417727,72.16696040942442
2026-09-29 19:22:17.308199424,-0.5506298828124999,0.9288886718749999,9.89457958984375,-1.4743259794678663,-1.020523329718364,0.29933930652490637,11.008015214868998,8.514792658548497,72.19493269701421
2026-09-29 19:22:17.339450112,0.8235507812499999,1.3693925781249998,9.430135253906249,-1.5403723745018314,-1.4530206907472323,0.32384038855363534,10.207413156947233,7.7074642056699805,72.22019223043938
2026-09-29 19:22:17.370699776,0.22025195312499998,1.3430581054687498,8.999207519531248,-1.6607472557734129,-2.014415048535936,0.4804342606502946,9.22813869534392,6.587873542065492,72.302091236651
2026-09-29 19:22:17.370699776,0.9863457031249999,1.5106411132812498,10.095679199218749,-1.0972223691126461,-2.5300030355752763,0.4729774095980727,8.493334995369898,5.144202178270451,72.3639797073925
2026-09-29 19:22:17.401949696,-1.2329321289062498,-0.34234814453124995,10.198623046875,-1.5542208121702434,-2.72068536962495,0.671116594699968,7.722316732276792,3.5563186462558987,72.51822583861612
2026-09-29 19:22:17.433199104,-1.6207670898437498,-0.09576171874999999,12.075552734374998,-1.530784994577546,-2.422411327536075,0.510261664859182,6.785037742917613,2.09254168305647,72.639149635955
2026-09-29 19:22:17.433199104,-0.9600112304687499,-0.64878564453125,11.292700683593749,-0.7382282541699648,-1.8024274257656283,0.3387540906580791,6.243633440686742,0.9485028865895573,72.72209067644194
2026-09-29 19:22:17.433199104,-0.7613056640624999,-0.51950732421875,9.97597705078125,-0.5006742849348967,-1.0045443631778888,0.14061490555618378,5.937591650527606,0.25624963818162266,72.76632757191848
2026-09-29 19:22:17.464449280,-0.45486816406249997,1.1587167968749998,10.861772949218748,-0.7126619077052041,-0.2002697139739587,-0.18429074743348328,5.5423286617976855,0.05587652639499559,72.69513970725603
2026-09-29 19:22:17.464449280,0.09815576171875,0.7660937499999999,10.14356005859375,-0.1374191122480887,0.16085492984078598,-0.39840889907585403,5.375313473474346,0.12954802014023636,72.48505964496562
2026-09-29 19:22:17.464449280,-0.14364257812499998,0.19152343749999998,11.1514521484375,-0.22050973825856093,0.3664509659949032,-0.21305288720633905,5.255771532345929,0.32469830401666405,72.35951624894794
2026-09-29 19:22:17.464449280,-0.6799082031249999,-0.612875,10.543365234374999,-0.07776430383031376,0.5731122665850521,-0.29933930652490637,5.217004140570325,0.6283500698601823,72.21572269010375
2026-09-29 19:22:17.495699456,-1.0964716796874998,0.8977661132812499,9.746148925781249,0.1810949541253882,0.8852347463423388,-0.5283711602717208,5.325042447455609,1.1242551042404327,72.00507076965569
2026-09-29 19:22:17.495699456,-0.13406640625,0.53865966796875,9.13806201171875,0.7733819805590108,1.1025486912928046,-0.5986786130498127,5.6909051363126935,1.7779841939946273,71.73826827426852
2026-09-29 19:22:17.495699456,1.3310878906249999,-1.0845014648437499,9.736572753906248,0.534762746887911,0.9395632325799552,-0.49108690501061153,5.995390010703113,2.3854909221286977,71.48037858311974
2026-09-29 19:22:17.526949376,-0.21067578124999997,1.2640546874999998,10.179470703124998,0.04687163518539459,0.5368932757599745,-0.3185140663734769,6.071372183509847,2.779283465162538,71.26850423181148
2026-09-29 19:22:17.526949376,-1.2496904296875,-1.3406640625,11.065266601562499,-0.24181502697919482,0.2908171910366528,0.04048004856920442,5.986905085400517,2.961581066083253,71.289574974524
2026-09-29 19:22:17.526949376,-1.6135849609375,1.8098964843749998,10.938382324218749,-0.11611382352745478,0.1352885833760253,-0.2918824554726845,5.912500289580603,3.079640913825493,71.16834362420373
2026-09-29 19:22:17.558199552,1.1347763671875,-0.9312827148437499,10.416480957031249,-0.021305288720633905,0.07776430383031376,-0.37816887479125183,5.87548215389208,3.165100971012408,70.96626307908959
2026-09-29 19:22:17.558199552,-0.035910644531249994,1.25208447265625,10.804315917968749,-0.12463593901570835,-0.07989483270237714,-0.4974784916268017,5.809894305524581,3.1560772451681247,70.66229896943582
2026-09-29 19:22:17.558199552,-0.5314775390625,0.7397592773437499,10.366206054687499,-0.05858954398174324,-0.054328486237616457,-0.7318366675537746,5.727603190411418,3.156165406961368,70.30174525117796
2026-09-29 19:22:17.558199552,-1.42445556640625,-0.13167236328124998,9.4995625,-0.06178533728983833,-0.2258360604387194,-0.9566074635564623,5.642052712975574,3.084402810449328,69.78261657730462
2026-09-29 19:22:17.558199552,-0.9384648437499999,0.9025541992187499,10.246503906249998,0.07243798165015528,-0.0916127414987258,-1.409344848869933,5.648008586367879,3.1101344665799577,68.99978613766726
2026-09-29 19:22:17.558199552,-1.7189228515625,1.0773193359375,10.01428173828125,0.3227751241176037,-0.005326322180158476,-1.691639924418332,5.733223412724201,3.1960206632154864,68.08053079043248
2026-09-29 19:22:17.558199552,-0.99352783203125,1.59682666015625,9.906549804687499,0.39734363463982236,-0.0021305288720633907,-1.7459684106559485,5.895780617097084,3.317037473988167,67.07566141290333
2026-09-29 19:22:17.558199552,-0.3782587890625,0.72539501953125,9.86106298828125,0.4069310145641076,-0.11504855909142309,-1.895105431700386,6.0648412532152465,3.3877003987325702,66.01751444868829
2026-09-29 19:22:17.558199552,-1.2975712890625,0.83552099609375,9.8443046875,0.21411815164237075,-0.20879182946221228,-1.8578211764392765,6.149517785151473,3.399676610714886,64.91829561760134
2026-09-29 19:22:17.573825024,-0.5219013671874999,1.5202172851562499,9.9975234375,0.035153726389045944,-0.1810949541253882,-1.7853831947891212,6.14273431818532,3.4147942431018357,63.8706165608109
2026-09-29 19:22:17.573825024,0.067033203125,1.63513134765625,9.796423828124999,-0.043675841877299504,-0.248206613595385,-1.6554209335932544,6.069707854371403,3.3893441009799283,62.89956688617194
2026-09-29 19:22:17.605075200,-0.9145244140625,1.6040087890624999,10.145954101562499,-0.28868666216458944,-0.3099919508852233,-1.3411679249639044,5.8998045201334985,3.299176397537777,62.058551336724996
2026-09-29 19:22:17.605075200,-0.13885449218749998,0.17476513671875,10.335083496093748,-0.3387540906580791,-0.35047199945442775,-1.0396980895669345,5.676195132029382,3.1739079925593763,61.41250209625882
2026-09-29 19:22:17.605075200,-0.47402050781249994,0.34234814453124995,10.332689453124999,-0.4048004856920442,-0.35260252832649114,-0.859668399877578,5.424199041716381,3.0088598576947123,60.866997728283884
2026-09-29 19:22:17.636324864,-0.49317285156249996,0.43810986328124996,10.150742187499999,-0.25566346464760686,-0.1832254829974516,-0.7733819805590108,5.231769199912208,2.9263800841574406,60.4071092159869
2026-09-29 19:22:17.636324864,-0.33277197265624997,0.85946142578125,10.162712402343749,-0.15126754991650074,-0.14807175660840563,-0.8159925580002786,5.097802820836099,2.8751329866733033,59.93777359568867
2026-09-29 19:22:17.667674880,-0.78524609375,1.0581669921874999,10.074132812499998,-0.11717908796348649,-0.10333065029507445,-0.8000135914598031,5.017894391943935,2.8503464441388013,59.46486827361652
2026-09-29 19:22:17.667674880,-0.49077880859374995,1.21377978515625,9.987947265625,-0.04793689962142629,-0.03408846195301425,-0.709466114397109,4.96563316400972,2.864305516059319,59.04158127391818
2026-09-29 19:22:17.683517952,-0.08618554687499999,0.9025541992187499,10.184258789062499,-0.043675841877299504,-0.03408846195301425,-0.5592638289166401,4.9278440108071,2.8738377434825466,58.699169964327545
2026-09-29 19:22:17.699144704,-0.5769643554687499,0.5889345703125,9.774877441406248,0.006391586616190171,0.05113269292952137,-0.360059379378713,4.912283324530456,2.900148637146016,58.46390457430937
2026-09-29 19:22:17.699144704,-0.46923242187499997,0.9624052734374999,9.808394042968748,0.04793689962142629,0.21624868051443413,-0.10439591473110614,4.9240969773791905,3.0195331520993745,58.36681792924326
2026-09-29 19:22:17.699144704,-0.4835966796875,0.7900341796874999,10.356629882812499,-0.039414784133172724,0.3153182730653818,0.04048004856920442,4.915746156244762,3.1856473522697644,58.39356366240111
2026-09-29 19:22:17.730514432,0.0622451171875,0.9600112304687499,10.445209472656249,-0.004261057744126781,0.26312031569982874,0.15233281435253243,4.908086653512731,3.3405831879716157,58.47285937604709
2026-09-29 19:22:17.730514432,-0.9767695312499999,1.06534912109375,10.5864580078125,-0.009587379924285258,0.21305288720633905,0.2439455558512582,4.919775573847786,3.454708509981482,58.607177936826005
2026-09-29 19:22:17.746140160,-0.67033203125,0.5482358398437499,10.418875,0.08309062601047223,0.11078750134729631,0.32384038855363534,4.977773812467393,3.5268150249089736,58.787740270396675
2026-09-29 19:22:17.777389568,-0.9887397460937499,1.59682666015625,9.6767216796875,0.05326322180158476,0.035153726389045944,0.3568635860706179,5.0380642983005295,3.53648931335876,58.980536383735185
2026-09-29 19:22:17.777389568,-1.4507900390625,0.9839516601562499,9.30564501953125,0.2013349784099904,-0.02663161090079238,0.2929477199087162,5.133678327618981,3.5201775860060818,59.17326507970802
2026-09-29 19:22:17.777389568,-0.6511796875,1.1228061523437498,10.14834814453125,0.029827404208887468,0.07989483270237714,0.22050973825856093,5.184008536848955,3.5483089621821122,59.30725657185446
2026-09-29 19:22:17.777389568,-0.833126953125,1.618373046875,9.834728515624999,0.07882956826634545,0.0916127414987258,0.3153182730653818,5.2335933050211825,3.5813356444559243,59.474993034119315
2026-09-29 19:22:17.777389568,-0.46205029296874994,0.99831591796875,9.6671455078125,0.043675841877299504,0.15233281435253243,0.44315000538918525,5.290310891819513,3.6388153995933625,59.71996709409153
2026-09-29 19:22:17.793014784,-0.49556689453124997,0.9767695312499999,10.117225585937499,-0.06711165946999681,0.16831178089300786,0.5283711602717208,5.279346985551482,3.7075241617296655,60.02179111088
2026-09-29 19:22:17.793014784,-0.50514306640625,1.1443525390625,9.8873974609375,0.03302319751698255,0.10439591473110614,0.5560680356085449,5.297389908717023,3.747380771050013,60.33754566138786
2026-09-29 19:22:17.793014784,-0.4452919921875,0.7732758789062499,9.918520019531249,0.01384843766841204,0.1384843766841204,0.5763080598931472,5.3300542929019485,3.7828029442680156,60.68139813071241
2026-09-29 19:22:17.808666624,-0.24419238281249997,1.082107421875,9.801211914062499,-0.11930961683554987,0.10546117916713783,0.6380933971829855,5.308372808616808,3.8214820861779026,61.03414193626902
2026-09-29 19:22:17.808666624,-0.50514306640625,0.8474912109374999,10.36381201171875,-0.04261057744126781,0.1320927900679302,0.6785734457521899,5.305215177889242,3.8514203074509417,61.43149240351209
2026-09-29 19:22:17.839889664,-0.6607558593749999,0.9576171874999999,9.65517529296875,-0.06711165946999681,0.16618125202094447,0.7414240474780599,5.3059067916887726,3.8951446745788734,61.85538005692261
2026-09-29 19:22:17.855560192,-0.6176630859375,0.8690375976562499,9.8443046875,-0.12357067457967666,0.12783173232380343,0.692421883420602,5.242544559388329,3.9627352548190524,62.281325165976064
2026-09-29 19:22:17.855560192,-0.5290834960937499,-0.14603662109374999,9.0782109375,-0.04261057744126781,0.07243798165015528,0.5123921937312454,5.230571238183231,3.971016105577125,62.58753085671659
2026-09-29 19:22:17.902854912,-0.7182128906249999,1.3430581054687498,9.93288427734375,-0.30892668644919163,0.06285060172587002,0.49641322719077,5.085446536063909,3.9849411242570927,62.871796919951315
2026-09-29 19:22:17.902854912,-1.5800683593749998,0.24179833984375,9.67193359375,-0.25779399351967025,0.006391586616190171,0.5038700782429919,4.942231176944624,3.969487394103386,63.176759105238226
2026-09-29 19:22:17.918479872,-1.1108359374999999,0.5482358398437499,9.978371093749999,-0.29933930652490637,0.05645901510967985,0.3099919508852233,4.776654693019477,3.9937309100626135,63.3786124661059
2026-09-29 19:22:17.918479872,-0.9193125,0.48599072265625,10.01667578125,-0.31957933080950857,0.07989483270237714,0.2492718780314167,4.601307412463983,4.03290052953612,63.535198897918036
2026-09-29 19:22:17.918479872,-0.91213037109375,0.392623046875,9.99991748046875,-0.30360036426903314,0.0660463950339651,0.24288029141522652,4.424772675026595,4.065479152308662,63.677400992901305
2026-09-29 19:22:17.918479872,0.16997705078124997,-0.18434130859374998,9.758119140624999,-0.1821602185614199,0.12357067457967666,0.23009711818284617,4.299930967580013,4.113380832722018,63.81434189586159
2026-09-29 19:22:17.918479872,0.27770898437499997,0.6799082031249999,10.4140869140625,0.023435817592697295,0.5155879870393405,0.18961706961364175,4.297578392279835,4.339692781307505,63.9396498812221
2026-09-29 19:22:17.949729792,0.6894843749999999,0.29446728515625,10.550547363281249,-0.11078750134729631,0.4506068564414071,0.10333065029507445,4.282371509838371,4.601189762494456,64.03395568660743
2026-09-29 19:22:17.949729792,0.7038486328125,-0.34713623046875,10.28241455078125,-0.22050973825856093,0.3824299325353786,-0.06498113059793341,4.169645725765412,4.808531193161718,64.03732926228841
2026-09-29 19:22:17.965354752,0.9719814453125,-1.446001953125,10.0884970703125,-0.2876213977285577,0.3057308931410965,-0.12144014570761326,3.995743016343782,4.981804152718463,63.9792934627505
2026-09-29 19:22:18.012229632,0.05266894531249999,-0.021546386718749998,10.2800205078125,-0.2918824554726845,0.30892668644919163,-0.3057308931410965,3.7964856138742684,5.149689102144692,63.8359272611929
2026-09-29 19:22:18.027854336,-0.47880859374999996,0.6942724609375,9.628840820312499,-0.2066613005901489,0.28016454667633583,-0.6657902725198096,3.6353403550421706,5.3354466038065915,63.514765545018165
2026-09-29 19:22:18.035921408,-1.52500537109375,-0.5985107421875,10.63673291015625,-0.14274543442824716,0.2918824554726845,-0.7275756098096479,3.498341533712232,5.52009446153761,63.11615361042619
2026-09-29 19:22:18.035921408,-2.01339013671875,0.01915234375,9.9831591796875,0.014913702104443734,0.2950782487807796,-0.7914914759715496,3.438842815099839,5.716745160341342,62.66986850401482
2026-09-29 19:22:18.035921408,-2.2216718749999997,-0.28010302734375,10.14356005859375,-0.006391586616190171,0.23968449810713144,-0.8436894333371027,3.3828626478964714,5.9116807651473655,62.214848890267184
2026-09-29 19:22:18.035921408,-2.0157841796875,0.21785791015624997,10.222563476562499,-0.07137271721412358,0.17363810307316632,-0.9278453237836066,3.295839938817551,6.060853024765339,61.69750917256167
2026-09-29 19:22:18.035921408,-1.85538330078125,0.258556640625,10.268050292968748,-0.136353847812057,0.08948221262666241,-0.9363674392718602,3.1704007782514267,6.169847653921614,61.16203411460438
2026-09-29 19:22:18.043951616,-1.8673535156249998,0.5602060546875,10.665461425781249,-0.16511598758491278,0.05539375067364816,-0.9363674392718602,3.0187723627438277,6.242052182364753,60.621542711157204
2026-09-29 19:22:18.090842112,-1.74525732421875,0.5219013671874999,10.50745458984375,-0.16085492984078598,-0.07030745277809189,-0.9235842660394799,2.870988621356565,6.255895167344088,60.084799125689116
2026-09-29 19:22:18.090842112,-1.6949824218749998,0.2824970703125,10.28720263671875,-0.11717908796348649,-0.19281286292173686,-0.9161274149872579,2.7391235553656834,6.192021105760576,59.55268662663938
2026-09-29 19:22:18.122091776,-2.15224462890625,0.24658642578124998,10.967110839843748,-0.10120012142301105,-0.2545982002115752,-0.8841694819063071,2.62494763049619,6.085263528362752,59.027459022466516
2026-09-29 19:22:18.122091776,-1.52500537109375,0.3495302734375,10.18665283203125,-0.12570120345174005,-0.37177728817506167,-0.8000135914598031,2.5027689548735674,5.911541010733294,58.546214003597974
2026-09-29 19:22:18.122091776,-1.4747304687499998,0.27770898437499997,10.141166015624998,-0.10439591473110614,-0.4303668321568049,-0.6583334214675877,2.394818938172722,5.700676561405245,58.13491124316459
2026-09-29 19:22:18.122091776,-0.9504350585937499,0.19391748046875,10.42126904296875,-0.044741106313331204,-0.3792341392272835,-0.520914309219499,2.325416202996319,5.48985596046152,57.80345191914493
2026-09-29 19:22:18.153341696,-0.45247412109374996,0.3495302734375,10.196229003906248,-0.025566346464760685,-0.2673813734439555,-0.48149952508632626,2.2779493451194743,5.314065722438523,57.51821403888297
2026-09-29 19:22:18.153341696,-0.5793583984374999,0.29207324218749997,10.32071923828125,0.11078750134729631,-0.23435817592697297,-0.37284255261109334,2.3028262441260736,5.1898601231946735,57.27852372757249
2026-09-29 19:22:18.153341696,-0.44050390624999997,0.011970214843749999,7.93146435546875,0.009587379924285258,-0.6498113059793341,-0.23755396923506805,2.3231024751641,4.922324636157726,57.10518235349022
2026-09-29 19:22:18.153341696,-0.6368154296874999,1.4364257812499999,10.418875,0.25246767133951176,-0.19813918510189532,-0.17896442525332482,2.4061412339041452,4.774861614278484,56.97343279105731
2026-09-29 19:22:18.153341696,-0.53865966796875,0.64878564453125,10.2321396484375,0.32490565298966706,-0.2024002428460221,0.11078750134729631,2.6081062291895543,4.660267106863855,56.99424652572946
2026-09-29 19:22:18.153341696,1.5704921875,0.07421533203125,10.306354980468749,0.23222764705490956,-0.28442560442046266,-0.0905474770626941,2.757169580843224,4.495957531669689,57.00747347074599
2026-09-29 19:22:18.153341696,0.536265625,0.7206069335937499,10.074132812499998,0.3078614220131599,-0.1587244009687226,-0.38882151915156876,2.918604678631413,4.37847836796153,56.78847000935165
2026-09-29 19:22:18.153341696,0.30404345703124996,0.83073291015625,10.033434082031249,0.17044230976507124,-0.18429074743348328,-0.3547330571985545,3.021515069132609,4.269308751540418,56.5751857215991
2026-09-29 19:22:18.184830720,0.44050390624999997,1.0342265625,9.9257021484375,0.09800432811491597,-0.16511598758491278,-0.37390781704712506,3.0754652655125496,4.16975950864208,56.35751173794206
2026-09-29 19:22:18.200432640,0.23222216796874998,0.9911337890624999,9.806,0.08309062601047223,-0.09906959255094766,-0.4005394279479174,3.1169519978393154,4.104931654956122,56.12833252220754
2026-09-29 19:22:18.200432640,-0.14364257812499998,0.9552231445312499,9.880215332031248,0.0,-0.029827404208887468,-0.41651839448839284,3.119716900601837,4.083184331126154,55.88870199722341
2026-09-29 19:22:18.200432640,-0.7182128906249999,0.8977661132812499,9.880215332031248,-0.09480853480682087,-0.07776430383031376,-0.4314320965928366,3.066821753629554,4.0648195213267,55.64278439072947
2026-09-29 19:22:18.247305984,-0.9624052734374999,0.80679248046875,9.80360595703125,-0.17257283863713463,-0.14913702104443735,-0.4527373853134705,2.9634639246038907,4.011891716798407,55.382590015699094
2026-09-29 19:22:18.262931712,-0.067033203125,0.62484521484375,10.01428173828125,-0.25033714246744837,-0.111852765783328,-0.47830373177823116,2.8091526877912187,3.9424569023162004,55.1085097536311
2026-09-29 19:22:18.278555904,-0.5003549804687499,0.5003549804687499,10.157924316406248,-0.2492718780314167,-0.05219795736555307,-0.5049353426790235,2.648871137615646,3.913670289897678,54.82018389953146
2026-09-29 19:22:18.294199552,-1.2544785156249998,0.026334472656249996,11.508164550781249,-0.4740426740341044,-0.044741106313331204,-0.5869607042534641,1.6279926133337859,4.312199013917325,52.884027682648814
2026-09-29 19:22:18.309893376,-0.0047880859375,0.24419238281249997,10.222563476562499,-0.4463457986972803,-0.054328486237616457,-0.5752427954571154,1.3447479307011494,4.272924946884448,52.53791415543204
2026-09-29 19:22:18.341149184,-0.57217626953125,-0.05745703125,10.107649414062498,-0.4005394279479174,0.039414784133172724,-0.545415391248228,1.0839959572062325,4.284497893277901,52.221789954447644
2026-09-29 19:22:18.373283840,-0.6368154296874999,-0.25616259765625,10.3805703125,-0.3643204371228398,0.03408846195301425,-0.5368932757599745,0.8491958972666228,4.307755420515003,51.91062504163975
2026-09-29 19:22:18.373283840,-0.30404345703124996,-0.27531494140624996,9.97597705078125,-0.3206445952455403,0.0692421883420602,-0.4985437560628334,0.628444738882417,4.335583268662067,51.61838616661486
2026-09-29 19:22:18.388907776,-0.7277890625,-0.21067578124999997,10.141166015624998,-0.25246767133951176,0.1629854587128494,-0.46658582298188256,0.45014740274349796,4.4159683682470465,51.34316006885589
2026-09-29 19:22:18.388907776,-1.0390146484375,-0.2729208984375,10.16989453125,-0.24181502697919482,0.18429074743348328,-0.41225733674426607,0.29167939379658014,4.522203654197704,51.09865606979647
2026-09-29 19:22:18.404532736,-1.1898393554687499,-0.36628857421875,10.11961962890625,-0.23648870479903636,0.17257283863713463,-0.35579832163458625,0.1325415579976955,4.627638780217333,50.88534028829076
2026-09-29 19:22:18.404532736,-1.4100913085937499,-0.35671240234374996,10.356629882812499,-0.2024002428460221,0.14381069886427886,-0.3099919508852233,359.9899115470344,4.72007383501418,50.70017324181251
2026-09-29 19:22:18.404532736,-1.4962768554687498,-0.335166015625,10.3805703125,-0.12889699675983513,0.11078750134729631,-0.272707695624114,359.8868919170045,4.791442616770201,50.53773968333055
2026-09-29 19:22:18.404532736,-1.4124853515624998,-0.5242954101562499,9.221853515625,0.01384843766841204,0.02024002428460221,-0.21305288720633905,359.85947716477847,4.828772283524432,50.40602151656611
2026-09-29 19:22:18.420577792,-0.7182128906249999,-0.69666650390625,9.590536132812499,-0.10120012142301105,0.02876213977285577,-0.18748654074157836,359.79559410239347,4.850813184574774,50.29429600799034
2026-09-29 19:22:18.467453696,-1.197021484375,-0.29925537109375,10.46436181640625,-0.1555286076606275,0.14168016999221547,-0.17896442525332482,359.6894368136946,4.910995237383689,50.18596410391766
2026-09-29 19:22:18.467453696,-0.8690375976562499,-0.62005712890625,10.660673339843749,-0.12676646788777174,0.12570120345174005,-0.12144014570761326,359.59898727759327,4.985254714963167,50.105094130158015
2026-09-29 19:22:18.467453696,-1.0797133789062499,-0.6032988281249999,10.33029541015625,-0.09267800593475749,0.03728425526110934,-0.10333065029507445,359.53293957276213,5.022402149709682,50.03951593493536
2026-09-29 19:22:18.498701824,-0.6799082031249999,-0.49077880859374995,10.366206054687499,-0.09906959255094766,0.030892668644919165,-0.0681769239060285,359.4692392902573,5.041569773409284,49.993545851518704
2026-09-29 19:22:18.498701824,-0.9288886718749999,-0.4979609375,10.246503906249998,-0.044741106313331204,0.05219795736555307,-0.05645901510967985,359.42851273159494,5.067811238172786,49.95761170763028
2026-09-29 19:22:18.498701824,-0.88818994140625,-0.10294384765624999,10.272838378906249,-0.01597896654047543,0.054328486237616457,-0.0021305288720633907,359.4075967419958,5.100267571058222,49.947474662814194
2026-09-29 19:22:18.529953536,-0.9288886718749999,-0.162794921875,10.483514160156249,0.12570120345174005,0.10013485698697935,0.09800432811491597,359.4601299332242,5.147632921788774,49.984367625385694
2026-09-29 19:22:18.529953536,-1.3478461914062498,-0.22264599609375,10.090891113281248,0.0458063707493629,-0.006391586616190171,0.09906959255094766,359.5118956795634,5.158188687702967,50.04294724958778
2026-09-29 19:22:18.529953536,-1.0294384765625,0.30164941406249995,9.90415576171875,-0.05326322180158476,-0.04687163518539459,0.09267800593475749,359.49874844113117,5.139298961071708,50.098016883922696
2026-09-29 19:22:18.529953536,-1.3334819335937498,0.23940429687499998,10.07652685546875,-0.11398329465539139,-0.07989483270237714,0.09800432811491597,359.45469433859955,5.107993160828146,50.15537233179735
2026-09-29 19:22:18.529953536,-0.8929780273437499,0.39022900390625,10.122013671875,-0.223705531566656,-0.18748654074157836,0.06391586616190172,359.3504488953297,5.02137304625532,50.19926032359938
2026-09-29 19:22:18.529953536,-0.5889345703125,0.5506298828124999,10.13158984375,-0.28122981111236756,-0.23009711818284617,0.029827404208887468,359.20278384742664,4.891360106246876,50.22321714630131
2026-09-29 19:22:18.529953536,-0.545841796875,0.40219921875,10.18186474609375,-0.25992452239173364,-0.23329291149094128,0.012783173232380343,359.05848649971716,4.752380005408661,50.23512905547047
2026-09-29 19:22:18.529953536,-0.043092773437499995,0.23701025390624997,9.973583007812499,-0.20985709389824397,-0.20453077171808548,0.010652644360316953,358.93483395948573,4.622374922406474,50.24241236746968
2026-09-29 19:22:18.561332736,0.22264599609375,0.13646044921875,9.923308105468749,-0.13954964112015208,-0.09693906367888427,0.03621899082507764,358.8513469721513,4.543737399428158,50.26098824481346
2026-09-29 19:22:18.576957440,0.35431835937499995,-0.09576171874999999,9.95921875,-0.12676646788777174,0.023435817592697295,0.06711165946999681,358.7848586699977,4.529383929885985,50.29559636544185
2026-09-29 19:22:18.576957440,-0.0143642578125,-0.1963115234375,10.04301025390625,-0.1310275256318985,0.14061490555618378,0.09480853480682087,358.71409350442497,4.584888059254552,50.34412731826344
2026-09-29 19:22:18.623808000,-0.26334472656249996,-0.13885449218749998,9.96640087890625,-0.10013485698697935,0.24181502697919482,0.14381069886427886,358.6567764517715,4.702014108185452,50.416906726018674
2026-09-29 19:22:18.623808000,-0.40219921875,-0.15082470703124998,10.050192382812499,0.006391586616190171,0.44208474095315353,0.20453077171808548,358.65159192849893,4.917289932857928,50.5202565531727
2026-09-29 19:22:18.623808000,-1.0390146484375,-0.2681328125,10.112437499999999,0.06711165946999681,0.5443501268121963,0.23861923367109975,358.6991424160316,5.220805704742247,50.64487279962566
2026-09-29 19:22:18.639432960,-1.25687255859375,-0.10773193359375,10.2417158203125,0.02024002428460221,0.46658582298188256,0.2673813734439555,358.7320498264969,5.510763464637335,50.788627809507645
2026-09-29 19:22:18.655059968,-0.6559677734374999,-0.17715917968749997,10.05498046875,-0.03621899082507764,0.34834147058236437,0.28016454667633583,358.7355280178766,5.729908237704663,50.943071185159994
2026-09-29 19:22:18.656073984,-0.7397592773437499,-0.21306982421874998,10.11004345703125,-0.10865697247523291,0.297208777652843,0.30360036426903314,358.7009193998485,5.910517593525045,51.11049917555472
2026-09-29 19:22:18.656073984,-1.2472963867187499,-0.29207324218749997,10.3805703125,-0.1757686319452297,0.25992452239173364,0.32703618186173045,358.6301329692678,6.068865597513308,51.292725122674064
2026-09-29 19:22:18.656073984,-1.9152343749999998,-0.22025195312499998,10.801921875,-0.21411815164237075,0.16085492984078598,0.34514567727426926,358.53152254265984,6.177041334781988,51.484049682864914
2026-09-29 19:22:18.656073984,-1.31432958984375,-0.26095068359374995,10.876137207031249,-0.17470336750919802,-0.02024002428460221,0.3408846195301425,358.43923433982826,6.1872875342250975,51.68021192931619
2026-09-29 19:22:18.686707712,-1.16589892578125,-0.5482358398437499,10.095679199218749,-0.1576591365326909,-0.1374191122480887,0.311057215321255,358.3654142892609,6.122171452098864,51.86619011131915
2026-09-29 19:22:18.704209664,-0.5266894531249999,-0.5817524414062499,9.9831591796875,-0.19494339179380024,-0.2077265650261806,0.311057215321255,358.27856498540115,6.015937449864355,52.04543528164556
2026-09-29 19:22:18.704209664,-0.24898046875,-0.9528291015624999,9.7724833984375,-0.1800296896893565,-0.16937704532903955,0.3206445952455403,358.1878366369406,5.912892831063115,52.23358905338217
2026-09-29 19:22:18.749467136,-0.5242954101562499,-1.09886572265625,10.064556640625,-0.11611382352745478,-0.08096009713840883,0.2545982002115752,358.1221591496742,5.855367606898314,52.38738173759321
2026-09-29 19:22:18.765091584,-0.6032988281249999,-0.1292783203125,10.466755859374999,0.08415589044650393,0.08522115488253562,0.21305288720633905,358.1363958077781,5.864281399224983,52.514224238420574
2026-09-29 19:22:18.765091584,-0.86185546875,0.2681328125,10.21538134765625,0.20985709389824397,0.111852765783328,0.31957933080950857,358.28166586952494,5.93457731907067,52.677201041920426
2026-09-29 19:22:18.765091584,-1.0174682617187498,-0.035910644531249994,9.841910644531248,0.08096009713840883,0.012783173232380343,0.3877562547155371,358.37244449091673,5.962448645148916,52.89473771999875
2026-09-29 19:22:18.765091584,-0.7708818359374999,-0.12209619140624998,10.09328515625,-0.0021305288720633907,-0.0031957933080950856,0.3621899082507764,358.3902489731741,5.968738066947717,53.10830786308446
2026-09-29 19:22:18.765091584,-0.890583984375,-0.40459326171875,10.538577148437499,0.044741106313331204,-0.0031957933080950856,0.3611246438147447,358.433124891299,5.967164429290422,53.315013960434364
2026-09-29 19:22:18.765091584,-0.9576171874999999,-0.42374560546874995,10.3757822265625,0.06498113059793341,-0.035153726389045944,0.35047199945442775,358.49777991916494,5.953363871305483,53.520006619222656
2026-09-29 19:22:18.780718080,-0.8666435546874999,-0.35910644531249997,10.04301025390625,-0.0021305288720633907,-0.023435817592697295,0.30466562870506486,358.54036644144156,5.936479881983066,53.705759918068075
2026-09-29 19:22:18.796369920,0.06463916015625,-0.46683837890624996,9.94246044921875,0.05645901510967985,0.03408846195301425,0.24288029141522652,358.57124386896555,5.950229779214113,53.85309359302367
2026-09-29 19:22:18.827656704,-1.15153466796875,0.15561279296875,10.08131494140625,0.09480853480682087,0.11078750134729631,0.18535601186951497,358.63191142917066,5.999132064432585,53.95467986867571
2026-09-29 19:22:18.859392256,-1.4124853515624998,0.11970214843749999,10.1651064453125,-0.01810949541253882,0.07350324608618697,0.2982740420888747,358.664445349879,6.055995228760041,54.111637786304726
2026-09-29 19:22:18.875017728,-1.7356811523437499,0.181947265625,10.107649414062498,-0.023435817592697295,0.029827404208887468,0.3611246438147447,358.6772344985047,6.090630897324075,54.31090484160936
2026-09-29 19:22:18.890642432,-1.8362309570312498,-0.0143642578125,10.141166015624998,-0.07030745277809189,-0.07030745277809189,0.4239752455406147,358.67192543597673,6.0789999906350705,54.54851713043398
2026-09-29 19:22:18.890642432,-1.74525732421875,-0.10294384765624999,10.162712402343749,-0.10759170803920122,-0.16405072314888108,0.4186489233604562,358.64183207627497,6.012949799145924,54.793002852271734
2026-09-29 19:22:18.890642432,-1.3262998046874999,-0.35431835937499995,10.1268017578125,-0.12144014570761326,-0.22796658931078279,0.3834951969714103,358.596142506653,5.901070416115854,55.024922859003674
2026-09-29 19:22:18.890642432,-0.9647993164062499,-0.46444433593749995,10.083708984374999,-0.1331580545039619,-0.2055960361541172,0.3057308931410965,358.5395260195356,5.783638545559313,55.215836603802266
2026-09-29 19:22:18.890642432,-0.6511796875,-0.28010302734375,10.0214638671875,-0.1310275256318985,-0.16085492984078598,0.20453077171808548,358.47527214323793,5.685735794369105,55.35038418576513
2026-09-29 19:22:18.890642432,-0.19870556640624998,-0.27052685546875,10.102861328125,-0.12676646788777174,-0.10546117916713783,0.08096009713840883,358.40800142568906,5.6157596201529625,55.41751258514624
2026-09-29 19:22:18.890642432,-0.14124853515625,-0.13406640625,9.990341308593749,-0.1374191122480887,-0.07669903939428206,-0.06072007285380663,358.33206369995446,5.558601559072725,55.404508697599276
2026-09-29 19:22:18.890642432,-0.08857958984374999,0.0143642578125,9.97118896484375,-0.14594122773634224,-0.049002164057457984,-0.19494339179380024,358.24083201868007,5.5157383939581015,55.312502079308224
2026-09-29 19:22:18.906291712,-0.2729208984375,0.1963115234375,9.90415576171875,-0.16937704532903955,0.008522115488253563,-0.2950782487807796,358.1372523934383,5.497169171802962,55.15524720191488
2026-09-29 19:22:18.921894144,-0.5314775390625,0.13646044921875,9.9975234375,-0.22264026713062432,0.049002164057457984,-0.37603834591918844,358.00400400325435,5.509764620089355,54.950849905224665
2026-09-29 19:22:18.937544704,-0.72539501953125,0.05745703125,10.00949365234375,-0.25992452239173364,0.07563377495825037,-0.4548679141855339,357.8396905552237,5.537356176531277,54.697419090315
2026-09-29 19:22:18.984391168,-0.8738256835937499,-0.20828173828125,10.145954101562499,-0.2876213977285577,0.08735168375459901,-0.4974784916268017,357.6536673264886,5.573298577112153,54.414906726760655
2026-09-29 19:22:19.015641856,-0.7086367187499999,-0.56260009765625,10.138771972656249,-0.28122981111236756,0.09267800593475749,-0.5294364247077525,357.4627732207018,5.610901259228722,54.1119859666235
2026-09-29 19:22:19.015641856,-0.7876401367187499,-0.75891162109375,10.2991728515625,-0.25246767133951176,0.10652644360316953,-0.5752427954571154,357.2790582791426,5.654115364450787,53.78398641342498
2026-09-29 19:22:19.015641856,-0.967193359375,-1.16589892578125,10.356629882812499,-0.16724651645697616,0.10226538585904274,-0.605070199666003,357.12557164470735,5.694740463925883,53.436045400230284
2026-09-29 19:22:19.015641856,-0.9911337890624999,-0.88818994140625,10.01428173828125,-0.1384843766841204,0.16511598758491278,-0.5890912331255275,357.01546489380223,5.762949779274064,53.087688674593934
2026-09-29 19:22:19.015641856,-0.8929780273437499,-0.8211567382812499,10.263262207031248,-0.12037488127158157,0.22264026713062432,-0.6530070992874292,356.89792814314575,5.869487663946793,52.71570151108097
2026-09-29 19:22:19.015641856,-1.28320703125,-0.91213037109375,10.1651064453125,-0.0021305288720633907,0.2269013248747511,-0.6838997679323484,356.8382803577677,5.97592921815916,52.31676207274978
2026-09-29 19:22:19.015641856,-1.2640546874999998,-0.88818994140625,10.03822216796875,0.03195793308095086,0.21624868051443413,-0.6668555369558412,356.8106263198139,6.083038125254086,51.92200235306772
2026-09-29 19:22:19.015641856,-1.1323823242187498,-0.45965625,9.995129394531249,0.01810949541253882,0.2258360604387194,-0.632767075002827,356.7798617008762,6.190082503068644,51.54414853445315
2026-09-29 19:22:19.015641856,-1.0749252929687498,-0.24898046875,9.918520019531249,0.0,0.23435817592697297,-0.5677859444048936,356.74627647032173,6.305395840513372,51.199218162375736
2026-09-29 19:22:19.031293440,-0.99831591796875,-0.26095068359374995,9.901761718749999,-0.025566346464760685,0.24181502697919482,-0.46125950080172406,356.7049004771612,6.426120682851718,50.91026586144811
2026-09-29 19:22:19.046894080,-1.1754750976562498,-0.3208017578125,10.100467285156249,-0.05113269292952137,0.2450108202872899,-0.3824299325353786,356.65436408867424,6.554688386579627,50.67204837981817
2026-09-29 19:22:19.062517504,-1.2808129882812498,-0.612875,10.09328515625,-0.054328486237616457,0.20879182946221228,-0.3344930329139523,356.6014645261551,6.668131618126563,50.46680438209608
2026-09-29 19:22:19.109391616,-0.7708818359374999,-0.6080869140624999,10.13158984375,-0.04793689962142629,0.14700649217237394,-0.35047199945442775,356.54974249857514,6.749884461127791,50.2587678641976
2026-09-29 19:22:19.109391616,-0.9432529296875,-0.6942724609375,10.145954101562499,-0.012783173232380343,0.1555286076606275,-0.3131877441933184,356.5147442899946,6.8233146847406445,50.06618550643331
2026-09-29 19:22:19.125016832,-1.0222563476562498,-0.5410537109375,9.99991748046875,0.0660463950339651,0.1384843766841204,-0.2514024069034801,356.5234190682472,6.890056060936879,49.90478400170839
2026-09-29 19:22:19.125016832,-1.1419584960937499,-0.38544091796874996,9.956824707031249,0.10546117916713783,0.11930961683554987,-0.18855180517761005,356.5649996040334,6.9526454091232415,49.7848724570531
2026-09-29 19:22:19.140642560,-1.25208447265625,-0.34474218749999996,10.0693447265625,0.14487596330031055,0.07669903939428206,-0.15020228548046904,356.631018514259,6.996291610351257,49.690139477416125
2026-09-29 19:22:19.140642560,-1.36221044921875,-0.32798388671874995,10.107649414062498,0.23222764705490956,0.035153726389045944,-0.10652644360316953,356.74663053051336,7.01852569312073,49.62051701119704
2026-09-29 19:22:19.140642560,-1.2999653320312499,-0.5985107421875,10.28241455078125,0.311057215321255,-0.008522115488253563,-0.06178533728983833,356.91121195583025,7.0185678202771875,49.578667451628085
2026-09-29 19:22:19.140642560,-1.12998828125,-0.22025195312499998,9.918520019531249,0.35260252832649114,0.0,0.006391586616190171,357.1214000875024,7.0118403924507255,49.570179833654834
2026-09-29 19:22:19.187839488,-0.6799082031249999,-0.021546386718749998,9.72699658203125,0.21624868051443413,0.05113269292952137,0.014913702104443734,357.27237756087334,7.031969186138583,49.58212241153538
2026-09-29 19:22:19.187839488,-0.6344213867187499,0.011970214843749999,9.7150263671875,0.1587244009687226,0.09480853480682087,-0.02663161090079238,357.3693116110603,7.072007796773347,49.56913744886848
2026-09-29 19:22:19.219089920,-0.6368154296874999,-0.07900341796874999,9.806,0.15020228548046904,0.19920444953792701,-0.009587379924285258,357.4579082986477,7.163297473714993,49.55539576297137
2026-09-29 19:22:19.219089920,-0.5314775390625,0.14603662109374999,9.791635742187498,0.08735168375459901,0.23222764705490956,-0.022370553156665602,357.5222895747028,7.287676767455648,49.539744216119885
2026-09-29 19:22:19.250339584,-0.42374560546874995,0.15800683593749998,9.700662109375,0.014913702104443734,0.2940129843447479,-0.06178533728983833,357.5443768043928,7.435334488165688,49.50393214207728
2026-09-29 19:22:19.250339584,-0.57217626953125,0.07182128906249999,9.791635742187498,-0.05752427954571154,0.35366779276252286,-0.10333065029507445,357.5209841140524,7.618645779413358,49.44271631934462
2026-09-29 19:22:19.250339584,-0.86185546875,0.03112255859375,9.700662109375,-0.11824435239951818,0.39201731245966387,-0.12889699675983513,357.4547319429221,7.82896445181657,49.36130306377736
2026-09-29 19:22:19.250339584,-0.8762197265624999,-0.33995410156249994,9.7054501953125,-0.17789916081729312,0.41971418779648795,-0.15446334322459582,357.34595328083856,8.055942337824732,49.2664031638479
2026-09-29 19:22:19.250339584,-1.1371704101562499,-0.5506298828124999,9.9831591796875,-0.20985709389824397,0.4697816162899776,-0.1821602185614199,357.2116572955838,8.308694554809204,49.15136349486538
2026-09-29 19:22:19.265966080,-1.4795185546874998,-0.8163686523437499,10.0980732421875,-0.16831178089300786,0.5187837803474356,-0.17896442525332482,357.08739006045295,8.589806379688996,49.02935418228374
2026-09-29 19:22:19.265966080,-1.75483349609375,-0.8929780273437499,10.0980732421875,-0.10546117916713783,0.5358280113239428,-0.1555286076606275,356.99699717387654,8.891795411117974,48.918411834243464
2026-09-29 19:22:19.265966080,-2.0301484375,-0.78285205078125,9.96640087890625,-0.030892668644919165,0.545415391248228,-0.10759170803920122,356.9491186919035,9.20100292551163,48.83024680773012
2026-09-29 19:22:19.265966080,-2.0540888671874997,-0.62005712890625,9.9640068359375,0.05113269292952137,0.5901564975615592,-0.044741106313331204,356.95565841513525,9.532965529208784,48.775596891504925
2026-09-29 19:22:19.265966080,-2.2456123046874996,-0.05266894531249999,9.990341308593749,0.05858954398174324,0.6391586616190171,0.06391586616190172,356.99613190045153,9.90003622964855,48.774287221860924
2026-09-29 19:22:19.312841472,-2.231248046875,-0.11730810546874999,9.923308105468749,0.03195793308095086,0.6274407528226685,0.2034655072820538,357.0371148236932,10.272131523824225,48.85804535354677
2026-09-29 19:22:19.312841472,-2.2719467773437496,-0.48120263671874997,9.89936767578125,0.035153726389045944,0.5997438774858445,0.2950782487807796,357.0835390039957,10.63219597293459,49.000123392087374
2026-09-29 19:22:19.312841472,-2.2982812499999996,-0.30404345703124996,10.0693447265625,0.007456851052221867,0.5486111845563231,0.34301514840220587,357.1273891164989,10.970258135951198,49.17513402816895
2026-09-29 19:22:19.344089088,-2.28631103515625,-0.21067578124999997,10.239321777343749,0.0031957933080950856,0.5028048138069602,0.335558297349984,357.1699858146374,11.275137739456511,49.36355491321703
2026-09-29 19:22:19.375340544,-1.96072119140625,-0.35671240234374996,9.9831591796875,-0.008522115488253563,0.44208474095315353,0.2950782487807796,357.2059466442357,11.5446980764223,49.527804561744034
2026-09-29 19:22:19.375340544,-2.0636650390624998,-0.19870556640624998,9.889791503906249,-0.008522115488253563,0.41225733674426607,0.2705771667520506,357.2341939735741,11.793911731271384,49.67650269857352
2026-09-29 19:22:19.375340544,-2.05169482421875,-0.24419238281249997,9.774877441406248,-0.004261057744126781,0.3898867835876005,0.27803401780427245,357.26458494883684,12.027873392895051,49.82712717567763
2026-09-29 19:22:19.375340544,-2.1426684570312498,-0.17476513671875,9.79402978515625,0.0021305288720633907,0.3675162304309349,0.2748382244961774,357.29947737418684,12.249842957747337,49.97904626003441
2026-09-29 19:22:19.375340544,-2.1163339843749998,-0.043092773437499995,9.61687060546875,0.01384843766841204,0.360059379378713,0.28016454667633583,357.3418529304056,12.463877494303773,50.13274902133799
2026-09-29 19:22:19.375340544,-2.46347021484375,0.07900341796874999,9.71023828125,0.02024002428460221,0.3515372638904594,0.2897519266006211,357.3936053582056,12.676069215474369,50.29316205595173
2026-09-29 19:22:19.390965760,-2.4060131835937497,0.059851074218749994,9.6096884765625,-0.01384843766841204,0.2940129843447479,0.2940129843447479,357.43431923148023,12.863149444890558,50.4572433868881
2026-09-29 19:22:19.390965760,-2.461076171875,-0.01675830078125,9.6767216796875,-0.03728425526110934,0.28868666216458944,0.3025350998330015,357.45778062771205,13.040045305495008,50.62792358149059
2026-09-29 19:22:19.406590720,-2.1977314453125,-0.40938134765624995,9.652781249999999,-0.05539375067364816,0.32170985968157195,0.311057215321255,357.47534860069965,13.391353587456114,50.97776905275993
2026-09-29 19:22:19.422359808,-2.3772846679687496,-0.56738818359375,9.758119140624999,-0.03408846195301425,0.35792885050664963,0.30466562870506486,357.49144520573304,13.599277563270277,51.14887907116164
2026-09-29 19:22:19.437984000,-2.6166889648437497,-0.69666650390625,9.863457031249999,-0.011717908796348648,0.3621899082507764,0.297208777652843,357.51824949198505,13.816389425613487,51.31539088539838
2026-09-29 19:22:19.437984000,-2.80342431640625,-0.7349711914062499,9.83712255859375,0.004261057744126781,0.32810144629776217,0.28442560442046266,357.55371048176846,14.019658809112542,51.47595732691793
2026-09-29 19:22:19.484858624,-2.8273647460937497,-0.699060546875,9.906549804687499,0.03621899082507764,0.3057308931410965,0.28549086885649433,357.604328706159,14.204913160129113,51.634942418879376
2026-09-29 19:22:19.500484096,-2.93030859375,-0.7062426757812499,9.806,0.05858954398174324,0.27909928224030417,0.2876213977285577,357.6738792630861,14.378826439049718,51.79673013152445
2026-09-29 19:22:19.500484096,-3.1792890624999997,-0.56260009765625,9.952036621093749,0.04154531300523612,0.23542344036300467,0.2929477199087162,357.74031173740775,14.533134125363206,51.96253054244768
2026-09-29 19:22:19.500484096,-3.5503657226562497,-0.34474218749999996,9.873033203124999,0.03408846195301425,0.1352885833760253,0.3057308931410965,357.8038588281259,14.642758714000864,52.136483447740936
2026-09-29 19:22:19.500484096,-3.131408203125,-0.37586474609375,9.69826806640625,0.022370553156665602,0.04154531300523612,0.32170985968157195,357.86597818381773,14.693798279884232,52.32374969377845
2026-09-29 19:22:19.532101120,-2.80342431640625,-0.41895751953125,9.719814453124998,0.005326322180158476,0.024501082028728992,0.3227751241176037,357.92049949750066,14.721637853525413,52.514460470080785
2026-09-29 19:22:19.563349504,-2.76990771484375,-0.29925537109375,9.808394042968748,-0.012783173232380343,-0.007456851052221867,0.3099919508852233,357.96378004171953,14.731359480396668,52.70062404637923
2026-09-29 19:22:19.594600448,-3.7442832031249997,-0.258556640625,9.947248535156248,-0.019174759848570515,-0.07137271721412358,0.2929477199087162,357.9993473207849,14.713877079366751,52.87723713050444
2026-09-29 19:22:19.594600448,-3.3085673828124995,-0.392623046875,10.0884970703125,-0.008522115488253563,-0.25246767133951176,0.31212247975728674,358.03552719740094,14.618902550779806,53.066747653769866
