Timestamp,ax,ay,az,gx,gy,gz,roll,pitch,yaw
2026-09-29 20:27:29.381082880,0.13406640625,-0.14603662109374999,10.155530273437499,0.0,0.0010652644360316954,0.0010652644360316954,1.4901321460287364,0.6226717051593587,343.0653897301604
2026-09-29 20:27:29.668348928,0.1005498046875,-0.10533789062499999,10.1651064453125,0.0,0.0,0.0,1.4855756491352377,0.6200219770027183,343.0659821208441
2026-09-29 20:27:29.668348928,0.09815576171875,-0.13885449218749998,10.1938349609375,0.0,0.0,0.0021305288720633907,1.4814112839896287,0.6177741100397478,343.06657886089346
2026-09-29 20:27:29.668348928,0.1149140625,-0.13406640625,10.16989453125,0.0,-0.0010652644360316954,0.0010652644360316954,1.4766250593073562,0.6151825211775911,343.06715669954775
2026-09-29 20:27:29.668348928,0.08618554687499999,-0.124490234375,10.22495751953125,0.0,0.0,0.0010652644360316954,1.4728433319441123,0.6125970416936464,343.0677433997963
2026-09-29 20:27:29.668348928,0.1005498046875,-0.13646044921875,10.22495751953125,0.0,0.0,0.0010652644360316954,1.4688653362799693,0.6105047416531554,343.0683393050369
2026-09-29 20:27:29.683981568,0.12209619140624998,-0.13885449218749998,10.16989453125,0.0,0.0,0.0021305288720633907,1.4646502827958539,0.6079869463129264,343.0692412625727
2026-09-29 20:27:29.683981568,0.1005498046875,-0.12209619140624998,10.14356005859375,0.0,-0.0010652644360316954,0.0,1.4598403002272735,0.6052374350089772,343.0695224268947
2026-09-29 20:27:29.683981568,0.08857958984374999,-0.13167236328124998,10.16989453125,0.0,-0.0010652644360316954,0.0010652644360316954,1.4547492771407242,0.602436915405819,343.0701013568355
2026-09-29 20:27:29.683981568,0.13406640625,-0.16518896484374998,10.212987304687498,0.0010652644360316954,0.0,0.0010652644360316954,1.4512469652582691,0.6002168381222857,343.07100498450615
2026-09-29 20:27:29.683981568,0.12688427734375,-0.1484306640625,10.2321396484375,0.0,0.0,0.0021305288720633907,1.4467206791122105,0.5974539210943114,343.07189673182324
2026-09-29 20:27:29.683981568,0.09576171874999999,-0.14603662109374999,10.217775390624999,0.0,0.0,0.0010652644360316954,1.4418897772980277,0.5950200382740515,343.07249132577493
2026-09-29 20:27:29.683981568,0.10294384765624999,-0.13406640625,10.22495751953125,0.0,0.0,0.0010652644360316954,1.4376858030001605,0.5930002580661933,343.0727843127495
2026-09-29 20:27:29.683981568,0.09336767578124999,-0.16518896484374998,10.229745605468748,0.0,-0.0010652644360316954,0.0010652644360316954,1.433181039236862,0.590205131942383,343.0733674051588
2026-09-29 20:27:29.683981568,0.08857958984374999,-0.14603662109374999,10.198623046875,0.0,-0.0010652644360316954,0.0010652644360316954,1.4284579649268159,0.5878650078076759,343.0739559502182
2026-09-29 20:27:29.699605504,0.12688427734375,-0.14124853515625,10.145954101562499,0.0,0.0,0.0021305288720633907,1.424160794583916,0.5856073562328477,343.0751638995488
2026-09-29 20:27:29.699605504,0.09576171874999999,-0.13406640625,10.167500488281249,0.0,0.0010652644360316954,0.0021305288720633907,1.4200654545494127,0.583107416912559,343.076065746467
2026-09-29 20:27:29.699605504,0.10773193359375,-0.13646044921875,10.16989453125,0.0,0.0,0.0021305288720633907,1.4158225378956828,0.5805460539855148,343.07726695425225
2026-09-29 20:27:29.699605504,0.10294384765624999,-0.19152343749999998,10.2034111328125,0.0,0.0,0.0010652644360316954,1.4111897658845756,0.5782195266924849,343.07786485869286
2026-09-29 20:27:29.715230208,0.10773193359375,-0.1292783203125,10.172288574218749,0.0,0.0,0.0010652644360316954,1.406603291572886,0.5757133792701549,343.07814774169236
2026-09-29 20:27:29.730854912,0.08379150390625,-0.14124853515625,10.20819921875,0.0,0.0,0.0010652644360316954,1.4026748933974953,0.5737259009665653,343.0787469233315
2026-09-29 20:27:29.730854912,0.11012597656249999,-0.14603662109374999,10.19144091796875,0.0,0.0,0.0021305288720633907,1.3990179633817859,0.5711626422031993,343.0796362437875
2026-09-29 20:27:29.730854912,0.0909736328125,-0.16040087890625,10.184258789062499,0.0,-0.0010652644360316954,0.0010652644360316954,1.3949397065397953,0.5688241479229562,343.08022986690304
2026-09-29 20:27:29.730854912,0.10294384765624999,-0.13646044921875,10.25368603515625,0.0,-0.0010652644360316954,0.0010652644360316954,1.3900249058619796,0.5664517910221815,343.08082147712634
2026-09-29 20:27:29.730854912,0.09815576171875,-0.13167236328124998,10.196229003906248,0.0,-0.0010652644360316954,0.0010652644360316954,1.3854652096487818,0.5639335579118436,343.0814137961852
2026-09-29 20:27:29.730854912,0.10533789062499999,-0.13885449218749998,10.217775390624999,0.0,-0.0010652644360316954,0.0021305288720633907,1.3810257206444316,0.5612944520772476,343.0823052579198
2026-09-29 20:27:29.746479616,0.059851074218749994,-0.15321875,10.196229003906248,0.0,0.0,0.0010652644360316954,1.3771911296790669,0.5588674543099317,343.08289167214593
2026-09-29 20:27:29.746479616,0.11252001953124999,-0.11970214843749999,10.18186474609375,0.0,0.0,0.0021305288720633907,1.3727624705305703,0.5564844660374347,343.084085812557
2026-09-29 20:27:29.746479616,0.124490234375,-0.124490234375,10.234533691406249,0.0,0.0,0.0010652644360316954,1.3686358428464087,0.5535331225370832,343.0849781087351
2026-09-29 20:27:29.746479616,0.10773193359375,-0.124490234375,10.212987304687498,0.0,0.0,0.0010652644360316954,1.3644349474410646,0.551287576847895,343.0852743211359
2026-09-29 20:27:29.762103808,0.07900341796874999,-0.13885449218749998,10.201017089843749,0.0,-0.0021305288720633907,0.0010652644360316954,1.3600843304116401,0.5485379008196811,343.08525251978165
2026-09-29 20:27:29.762103808,0.124490234375,-0.1675830078125,10.17707666015625,0.0010652644360316954,0.0,0.0021305288720633907,1.3562632751398942,0.5463581514630012,343.0861525728195
2026-09-29 20:27:29.762103808,0.11012597656249999,-0.1675830078125,10.179470703124998,0.0,0.0,0.0010652644360316954,1.352177556632299,0.5439552848121189,343.0870576729824
2026-09-29 20:27:29.777729280,0.08857958984374999,-0.15321875,10.2417158203125,0.0,0.0,0.0,1.3474867186720811,0.5420182868450213,343.0870548958321
2026-09-29 20:27:29.777729280,0.11730810546874999,-0.15321875,10.205805175781249,0.0,0.0,0.0,1.3430627981583918,0.5407362232780452,343.08736692300585
2026-09-29 20:27:29.777729280,0.11970214843749999,-0.124490234375,10.1938349609375,0.0,0.0,0.0010652644360316954,1.3388337827331196,0.538441781364775,343.08796867607447
2026-09-29 20:27:29.777729280,0.10533789062499999,-0.16040087890625,10.17707666015625,0.0,0.0,0.0,1.3349097608806324,0.5361887411192958,343.08826557482456
2026-09-29 20:27:29.777729280,0.10294384765624999,-0.15082470703124998,10.2034111328125,0.0,0.0,0.0021305288720633907,1.3305073696131833,0.5335941894710771,343.0891670163202
2026-09-29 20:27:29.777729280,0.076609375,-0.15321875,10.2034111328125,0.0,-0.0010652644360316954,0.0010652644360316954,1.326088821874507,0.5310180076827363,343.0900615480732
2026-09-29 20:27:29.777729280,0.10294384765624999,-0.15561279296875,10.1651064453125,0.0,-0.0010652644360316954,0.0010652644360316954,1.3211777938967897,0.5290866676225069,343.0906634516447
2026-09-29 20:27:29.777729280,0.10773193359375,-0.13167236328124998,10.21059326171875,0.0,0.0,0.0010652644360316954,1.3166362580975524,0.526648772011775,343.0912591381846
2026-09-29 20:27:29.777729280,0.08379150390625,-0.13167236328124998,10.18665283203125,0.0,0.0,0.0021305288720633907,1.3125565342598966,0.5239646604721192,343.09215459734855
2026-09-29 20:27:29.777729280,0.0909736328125,-0.12688427734375,10.201017089843749,0.0,-0.0010652644360316954,0.0,1.3085082062937035,0.522069275482275,343.09245441589877
2026-09-29 20:27:29.777729280,0.12688427734375,-0.13885449218749998,10.212987304687498,0.0,0.0,0.0010652644360316954,1.3044553471306801,0.5194095747767202,343.0927404121884
2026-09-29 20:27:29.777729280,0.0622451171875,-0.13885449218749998,10.22495751953125,0.0,0.0,0.0031957933080950856,1.3003836537376818,0.5173329486388369,343.09395552928476
2026-09-29 20:27:29.777729280,0.10294384765624999,-0.14603662109374999,10.16989453125,0.0,0.0,0.0010652644360316954,1.2966394418540264,0.5149851313384806,343.0948588918491
2026-09-29 20:27:29.777729280,0.11970214843749999,-0.13646044921875,10.2417158203125,0.0,0.0,0.0021305288720633907,1.2927174300579747,0.5129915604209643,343.0957677079962
2026-09-29 20:27:29.777729280,0.14603662109374999,-0.15321875,10.18665283203125,0.0,0.0,0.0010652644360316954,1.2890589629469145,0.5105085716294991,343.0966720824616
2026-09-29 20:27:29.777729280,0.08618554687499999,-0.13406640625,10.18186474609375,0.0,0.0,0.0021305288720633907,1.2849365550927192,0.5078797097561343,343.09788063102656
2026-09-29 20:27:29.777729280,0.10533789062499999,-0.13646044921875,10.21059326171875,-0.0010652644360316954,0.0,0.0010652644360316954,1.2803723421099236,0.5060191969819343,343.0987923500307
2026-09-29 20:27:29.777729280,0.08857958984374999,-0.11730810546874999,10.179470703124998,0.0,-0.0010652644360316954,0.0,1.2764594348010219,0.5033536295429557,343.099080865644
2026-09-29 20:27:29.777729280,0.1292783203125,-0.1675830078125,10.1746826171875,-0.0010652644360316954,-0.0010652644360316954,0.0010652644360316954,1.2715262430748044,0.5007461816977197,343.0999787501196
2026-09-29 20:27:29.777729280,0.1149140625,-0.181947265625,10.17707666015625,0.0,0.0,0.0010652644360316954,1.2674618945519802,0.4983102665653087,343.10057817717654
2026-09-29 20:27:29.777729280,0.11730810546874999,-0.162794921875,10.275232421875,0.0,-0.0010652644360316954,0.0010652644360316954,1.2635675050247803,0.4957663032705035,343.10148168235895
2026-09-29 20:27:29.777729280,0.11970214843749999,-0.13885449218749998,10.172288574218749,0.0,0.0,0.0021305288720633907,1.2601347164036965,0.49317607393720675,343.10269198015357
2026-09-29 20:27:29.777729280,0.10533789062499999,-0.10533789062499999,10.141166015624998,0.0,0.0,0.0021305288720633907,1.25670584661059,0.49095317785753234,343.10390922966644
2026-09-29 20:27:29.789230848,0.09815576171875,-0.11730810546874999,10.179470703124998,0.0,0.0,0.0,1.2529930532711215,0.48850610843907144,343.1042074747593
2026-09-29 20:27:29.809252608,0.0909736328125,-0.15561279296875,10.198623046875,0.0,0.0,0.0021305288720633907,1.2494346171896882,0.4864728233230387,343.1051214253768
2026-09-29 20:27:29.809252608,0.11970214843749999,-0.124490234375,10.239321777343749,0.0,-0.0010652644360316954,0.0,1.2450927309244237,0.48390457869137726,343.10571569558016
2026-09-29 20:27:29.818809856,0.08857958984374999,-0.11970214843749999,10.2417158203125,0.0,0.0,0.0010652644360316954,1.2411881346095126,0.48173641910762177,343.10632439869653
2026-09-29 20:27:29.832464640,0.0622451171875,-0.14364257812499998,10.189046874999999,0.0,0.0,0.0010652644360316954,1.2374110656806698,0.47908177392306045,343.106921166426
2026-09-29 20:27:29.834827008,0.11970214843749999,-0.09576171874999999,10.179470703124998,0.0,0.0,0.0021305288720633907,1.2330331253003501,0.47674826581606755,343.10782094223373
2026-09-29 20:27:29.846582016,0.13646044921875,-0.11730810546874999,10.212987304687498,0.0,0.0,0.0010652644360316954,1.2293895562236064,0.47426775644511066,343.1084258114351
2026-09-29 20:27:29.854588416,0.1005498046875,-0.15082470703124998,10.217775390624999,0.0,0.0,0.0,1.2260448436471867,0.47138364757119194,343.108719235504
2026-09-29 20:27:29.862590464,0.13167236328124998,-0.13167236328124998,10.160318359375,0.0,0.0,0.0021305288720633907,1.2217963612865703,0.46951760077220683,343.1099388911316
2026-09-29 20:27:29.886161920,0.07900341796874999,-0.15321875,10.150742187499999,0.0,0.0,0.0010652644360316954,1.217831316349394,0.4672508527911085,343.1105507895519
2026-09-29 20:27:29.886161920,0.07421533203125,-0.15082470703124998,10.24889794921875,0.0,0.0,0.0010652644360316954,1.2130791361179027,0.465756201015765,343.11116533086334
2026-09-29 20:27:29.894668544,0.15321875,-0.124490234375,10.217775390624999,0.0,0.0,0.0021305288720633907,1.2088839910990343,0.4637695917167871,343.11238585261106
2026-09-29 20:27:29.894668544,0.1149140625,-0.13167236328124998,10.162712402343749,0.0,0.0010652644360316954,0.0021305288720633907,1.2054796924901892,0.4616893823165569,343.1133026025055
2026-09-29 20:27:29.910299904,0.1005498046875,-0.14124853515625,10.172288574218749,0.0,0.0,0.0021305288720633907,1.2013950853770796,0.4597835474657,343.1145240944145
2026-09-29 20:27:29.927254016,0.10533789062499999,-0.10533789062499999,10.150742187499999,0.0,0.0,0.0021305288720633907,1.197241938343815,0.4578850327754482,343.11544004140467
2026-09-29 20:27:29.941760000,0.11970214843749999,-0.1292783203125,10.20819921875,0.0,0.0,0.0021305288720633907,1.1939126790221155,0.45556168449091056,343.11665646928253
2026-09-29 20:27:29.941760000,0.11012597656249999,-0.13167236328124998,10.260868164062499,0.0,0.0,0.0010652644360316954,1.1904067997334118,0.45347908635290485,343.1172678070373
2026-09-29 20:27:29.973042688,0.13646044921875,-0.11252001953124999,10.189046874999999,0.0,0.0,0.0021305288720633907,1.1868817921988328,0.4517040512902209,343.1184956999516
2026-09-29 20:27:30.066765312,0.09576171874999999,-0.14124853515625,10.14834814453125,0.0,0.0,0.0021305288720633907,1.1832319062796464,0.44913940898920457,343.119102405125
2026-09-29 20:27:30.066765312,0.13885449218749998,-0.1484306640625,10.160318359375,-0.0010652644360316954,0.0,0.0010652644360316954,1.1790456490883243,0.44758429784750936,343.1200274554955
2026-09-29 20:27:30.082391296,0.10533789062499999,-0.1149140625,10.17707666015625,0.0,0.0,0.0021305288720633907,1.175589608068523,0.445354173366836,343.12094497636554
2026-09-29 20:27:30.082391296,0.10773193359375,-0.1292783203125,10.20819921875,0.0,0.0,0.0010652644360316954,1.1718684857758626,0.4431057171376928,343.121551601012
2026-09-29 20:27:30.098017536,0.11970214843749999,-0.14364257812499998,10.2034111328125,0.0,0.0,0.0010652644360316954,1.1676036710553264,0.4413704931723374,343.1218661558019
2026-09-29 20:27:30.098017536,0.10773193359375,-0.15082470703124998,10.145954101562499,0.0,0.0,0.0021305288720633907,1.1641945890982106,0.43945629144265635,343.12278433814595
2026-09-29 20:27:30.098017536,0.10533789062499999,-0.13885449218749998,10.145954101562499,0.0,-0.0010652644360316954,0.0010652644360316954,1.160369038963069,0.4368570740202732,343.12368938840325
2026-09-29 20:27:30.098017536,0.12688427734375,-0.17715917968749997,10.17707666015625,0.0,0.0,0.0021305288720633907,1.1563910027088489,0.43492340299908494,343.1249132615311
2026-09-29 20:27:30.098017536,0.11730810546874999,-0.162794921875,10.198623046875,0.0,0.0,0.0010652644360316954,1.1525904705016825,0.4327631857216269,343.12552370450976
2026-09-29 20:27:30.098017536,0.13646044921875,-0.13167236328124998,10.117225585937499,0.0,0.0,0.0010652644360316954,1.1485474728392004,0.43079369718790644,343.12613715634205
2026-09-29 20:27:30.098017536,0.08857958984374999,-0.1484306640625,10.236927734375,0.0,0.0,0.0021305288720633907,1.1451160096112418,0.42833329583028246,343.1270496794752
2026-09-29 20:27:30.098017536,0.09336767578124999,-0.18434130859374998,10.21059326171875,0.0,0.0,0.0010652644360316954,1.1412892953826475,0.4267062706333738,343.1279740294774
2026-09-29 20:27:30.098017536,0.09576171874999999,-0.14603662109374999,10.263262207031248,0.0,-0.0010652644360316954,0.0021305288720633907,1.1373422734898122,0.4245596112441803,343.1291904736576
2026-09-29 20:27:30.098017536,0.12209619140624998,-0.11252001953124999,10.19144091796875,0.0,0.0,0.0010652644360316954,1.1335969605203646,0.42253573726537125,343.12979848025026
2026-09-29 20:27:30.098017536,0.11012597656249999,-0.15561279296875,10.239321777343749,0.0010652644360316954,0.0010652644360316954,0.0010652644360316954,1.1303206204531562,0.4216070610564043,343.1304317442749
2026-09-29 20:27:30.113899008,0.08857958984374999,-0.14124853515625,10.21059326171875,0.0,0.0010652644360316954,0.0010652644360316954,1.1269737604731576,0.42015300630381786,343.13075122253014
2026-09-29 20:27:30.129534976,0.14124853515625,-0.11730810546874999,10.1746826171875,0.0,0.0,0.0010652644360316954,1.1237321441623365,0.41838510953952013,343.1316719788744
2026-09-29 20:27:30.145262080,0.07182128906249999,-0.13167236328124998,10.234533691406249,0.0,-0.0010652644360316954,0.0010652644360316954,1.1203939923992472,0.41535655890125445,343.132269133513
2026-09-29 20:27:30.145262080,0.13646044921875,-0.15321875,10.18665283203125,-0.0010652644360316954,-0.0010652644360316954,0.0,1.1164053785738632,0.41333144646655984,343.1325730343834
2026-09-29 20:27:30.145262080,0.11012597656249999,-0.16518896484374998,10.234533691406249,0.0,0.0,0.0010652644360316954,1.1126807142319683,0.4108686190292665,343.13318187637077
2026-09-29 20:27:30.207655680,0.14364257812499998,-0.16040087890625,10.205805175781249,0.0,-0.0010652644360316954,0.0010652644360316954,1.108326946163676,0.40852914790491457,343.1337847853964
2026-09-29 20:27:30.207655680,0.10294384765624999,-0.10773193359375,10.14834814453125,0.0,0.0,0.0021305288720633907,1.1042636270816972,0.40575280797366525,343.13469295844067
2026-09-29 20:27:30.207655680,0.09576171874999999,-0.16518896484374998,10.184258789062499,0.0,0.0,0.0010652644360316954,1.10097919407118,0.4040889465621929,343.1353151443146
2026-09-29 20:27:30.207655680,0.124490234375,-0.12209619140624998,10.239321777343749,0.0,0.0,0.0021305288720633907,1.0971837685593284,0.40175138934637195,343.1359185761868
2026-09-29 20:27:30.207655680,0.10294384765624999,-0.14124853515625,10.21059326171875,0.0,0.0,0.0021305288720633907,1.0936514854522574,0.39971456433129776,343.13684054330685
2026-09-29 20:27:30.207655680,0.124490234375,-0.13167236328124998,10.198623046875,-0.0021305288720633907,-0.0010652644360316954,0.0010652644360316954,1.0892696068218142,0.39762327235307876,343.13745019895475
2026-09-29 20:27:30.229754624,0.08618554687499999,-0.16518896484374998,10.212987304687498,0.0,0.0,0.0,1.0857536187526424,0.39572538425295434,343.13806745843516
2026-09-29 20:27:30.237672448,0.05266894531249999,-0.1292783203125,10.19144091796875,0.0,-0.0010652644360316954,0.0,1.0816608703880504,0.39306327410296726,343.1383604936294
2026-09-29 20:27:30.242917888,0.0813974609375,-0.13885449218749998,10.239321777343749,0.0,0.0,0.0,1.0780280001468943,0.3918714910225042,343.13837486104717
2026-09-29 20:27:30.254922496,0.124490234375,-0.16518896484374998,10.160318359375,0.0,0.0,0.0010652644360316954,1.0744421282484782,0.39044357415154257,343.1389919196641
2026-09-29 20:27:30.254922496,0.11970214843749999,-0.1484306640625,10.18186474609375,0.0,0.0,0.0010652644360316954,1.0707288042201526,0.387890400409627,343.139901921226
2026-09-29 20:27:30.286390272,0.10773193359375,-0.15800683593749998,10.1651064453125,0.0,-0.0021305288720633907,0.0021305288720633907,1.0668491332857906,0.38520260235799836,343.14111837690837
2026-09-29 20:27:30.302022912,0.0813974609375,-0.10533789062499999,10.25368603515625,-0.0010652644360316954,-0.0010652644360316954,0.0021305288720633907,1.062566696278031,0.38269910991821643,343.14202915718994
2026-09-29 20:27:30.302022912,0.08618554687499999,-0.13885449218749998,10.2321396484375,0.0,0.0,0.0010652644360316954,1.0591418208153616,0.38099758224459335,343.1426478789184
2026-09-29 20:27:30.302022912,0.12688427734375,-0.16040087890625,10.196229003906248,0.0,0.0,0.0010652644360316954,1.0556326856585694,0.3789025937535188,343.14326048356173
2026-09-29 20:27:30.330440960,0.09815576171875,-0.13167236328124998,10.21538134765625,0.0,-0.0010652644360316954,0.0021305288720633907,1.0518138726887951,0.37630247664495914,343.14417279277046
2026-09-29 20:27:30.363660800,0.13885449218749998,-0.14603662109374999,10.19144091796875,0.0,0.0,0.0021305288720633907,1.0482958014086317,0.3743512653404983,343.1454016461189
2026-09-29 20:27:30.380357376,0.12688427734375,-0.15321875,10.1938349609375,0.0,-0.0010652644360316954,0.0010652644360316954,1.0442797754645654,0.3713693450887872,343.14600230161335
2026-09-29 20:27:30.408756224,0.10773193359375,-0.124490234375,10.184258789062499,0.0,0.0,0.0021305288720633907,1.0406769964935938,0.3687472807426715,343.14691471005824
2026-09-29 20:27:30.408756224,0.09815576171875,-0.13646044921875,10.22016943359375,0.0,0.0,0.0010652644360316954,1.0368235849556222,0.3665721898453223,343.14752787197835
2026-09-29 20:27:30.413642752,0.07182128906249999,-0.08857958984374999,10.229745605468748,0.0,0.0,0.0021305288720633907,1.0333503970664775,0.36517743946262365,343.1484578632933
2026-09-29 20:27:30.413642752,0.11252001953124999,-0.13167236328124998,10.205805175781249,0.0,0.0,0.0021305288720633907,1.030674910170795,0.36320070052644277,343.14937815899685
2026-09-29 20:27:30.415012096,0.067033203125,-0.12209619140624998,10.24889794921875,0.0,0.0,0.0010652644360316954,1.0272221796413243,0.3607770610600091,343.150292027337
2026-09-29 20:27:30.415012096,0.06942724609374999,-0.14124853515625,10.198623046875,0.0,0.0,0.0010652644360316954,1.0241059580809708,0.35915178595285596,343.15060693862415
2026-09-29 20:27:30.415012096,0.076609375,-0.13885449218749998,10.172288574218749,0.0,0.0,0.0010652644360316954,1.0205531345328032,0.35730110367311063,343.1512207801578
2026-09-29 20:27:30.424520704,0.10773193359375,-0.14364257812499998,10.21059326171875,0.0,0.0,0.0010652644360316954,1.0173272156037305,0.35522307167692396,343.15214011966583
2026-09-29 20:27:30.440611840,0.07900341796874999,-0.1484306640625,10.217775390624999,0.0,0.0010652644360316954,0.0010652644360316954,1.0138157285340892,0.3537198289851496,343.15307045555335
2026-09-29 20:27:30.446851584,0.076609375,-0.1292783203125,10.22495751953125,0.0,0.0,0.0010652644360316954,1.0098012753653962,0.3522228340166159,343.1536890900186
2026-09-29 20:27:30.471570944,0.124490234375,-0.124490234375,10.184258789062499,0.0,0.0,0.0021305288720633907,1.006393091202692,0.35045885206523275,343.15461487720887
2026-09-29 20:27:30.472186624,0.11012597656249999,-0.13406640625,10.179470703124998,0.0010652644360316954,0.0,0.0010652644360316954,1.0034166121797272,0.3484533161242622,343.15523634439364
2026-09-29 20:27:30.487771136,0.10773193359375,-0.1149140625,10.172288574218749,0.0,-0.0010652644360316954,0.0,0.9999948412283524,0.34635095853867714,343.15554676356373
2026-09-29 20:27:30.487771136,0.1149140625,-0.15082470703124998,10.17707666015625,0.0,0.0010652644360316954,0.0021305288720633907,0.9967960546252843,0.344441720447129,343.15647414934097
2026-09-29 20:27:30.487771136,0.08857958984374999,-0.13646044921875,10.201017089843749,0.0,0.0,0.0010652644360316954,0.9936950119500616,0.34222338072735903,343.15708992517955
2026-09-29 20:27:30.501496832,0.08618554687499999,-0.14364257812499998,10.15313623046875,0.0,-0.0010652644360316954,0.0,0.9897710054764711,0.339932748280437,343.15739622581873
2026-09-29 20:27:30.513559296,0.10773193359375,-0.14364257812499998,10.189046874999999,0.0,0.0,0.0010652644360316954,0.9866985733390107,0.3377036074418312,343.1583105864402
2026-09-29 20:27:30.530306816,0.10294384765624999,-0.12209619140624998,10.160318359375,0.0,0.0,0.0,0.9829539251281754,0.3362780740220624,343.15832172393897
2026-09-29 20:27:30.530306816,0.10773193359375,-0.1484306640625,10.234533691406249,0.0,0.0,0.0021305288720633907,0.9795095292584548,0.3344607016287428,343.15894500815443
2026-09-29 20:27:30.546831872,0.08618554687499999,-0.14124853515625,10.201017089843749,0.0,-0.0010652644360316954,0.0021305288720633907,0.9760226952820522,0.33213354244890064,343.15986100066783
2026-09-29 20:27:30.546831872,0.09336767578124999,-0.16997705078124997,10.212987304687498,0.0,0.0,0.0021305288720633907,0.9729343654058146,0.3306826345481021,343.1610983374305
2026-09-29 20:27:30.581271296,0.10533789062499999,-0.11970214843749999,10.236927734375,0.0,0.0,0.0010652644360316954,0.9697788799513725,0.32843476771963087,343.1617096160976
2026-09-29 20:27:30.581271296,0.11012597656249999,-0.14364257812499998,10.246503906249998,0.0,0.0,0.0010652644360316954,0.9664698148849711,0.32649633820315765,343.162327132265
2026-09-29 20:27:30.585278208,0.14124853515625,-0.13167236328124998,10.2321396484375,0.0,0.0,0.0010652644360316954,0.9633959757867462,0.324186080705043,343.1632443152143
2026-09-29 20:27:30.587592704,0.13646044921875,-0.13646044921875,10.22495751953125,0.0,0.0,0.0,0.9604184876657302,0.32222909654360216,343.16325713547724
2026-09-29 20:27:30.613951744,0.0622451171875,-0.1675830078125,10.133983886718749,0.0,0.0,0.0021305288720633907,0.957199106439667,0.320651840218482,343.16449428588294
2026-09-29 20:27:30.628458240,0.09576171874999999,-0.13885449218749998,10.16989453125,-0.0010652644360316954,0.0,0.0010652644360316954,0.95346604953859,0.31896703250312386,343.16542196356954
2026-09-29 20:27:30.663418624,0.10294384765624999,-0.15321875,10.1651064453125,0.0,0.0,0.0021305288720633907,0.9498971745122206,0.3173853798677345,343.16665566745064
2026-09-29 20:27:30.679969024,0.08857958984374999,-0.13167236328124998,10.18186474609375,0.0,0.0,0.0010652644360316954,0.9466725616387516,0.3156163824798372,343.1672725755999
2026-09-29 20:27:30.679969024,0.0909736328125,-0.13167236328124998,10.167500488281249,0.0,0.0,0.0010652644360316954,0.9431082683287059,0.3137718554039508,343.16789622607655
2026-09-29 20:27:30.679969024,0.10294384765624999,-0.09576171874999999,10.1651064453125,0.0,0.0010652644360316954,0.0010652644360316954,0.9401904597744912,0.312416737212933,343.1688301983328
2026-09-29 20:27:30.679969024,0.07182128906249999,-0.1292783203125,10.21538134765625,0.0010652644360316954,0.0,0.0010652644360316954,0.9373065099487203,0.310831663743206,343.16945434776164
2026-09-29 20:27:30.679969024,0.0909736328125,-0.124490234375,10.179470703124998,0.0,-0.0010652644360316954,0.0010652644360316954,0.9339446843676391,0.30896882908620404,343.1700725861774
2026-09-29 20:27:30.679969024,0.08857958984374999,-0.16997705078124997,10.189046874999999,0.0,-0.0010652644360316954,0.0,0.9308140123766835,0.3073403184541163,343.1703921468271
2026-09-29 20:27:30.726305536,0.124490234375,-0.13646044921875,10.17707666015625,0.0,-0.0010652644360316954,0.0010652644360316954,0.9270047983527401,0.30541384936957494,343.17131504310805
2026-09-29 20:27:30.746681600,0.11730810546874999,-0.11252001953124999,10.227351562499999,0.0,0.0,0.0010652644360316954,0.9236958663087833,0.3032332456367947,343.17193409850506
2026-09-29 20:27:30.746681600,0.1149140625,-0.13646044921875,10.1651064453125,0.0,0.0,0.0010652644360316954,0.9207307673870759,0.3015261120746578,343.1728634272258
2026-09-29 20:27:30.773808640,0.067033203125,-0.15082470703124998,10.198623046875,0.0,0.0,0.0010652644360316954,0.917304192331188,0.2993002962186806,343.17347720332737
2026-09-29 20:27:30.773808640,0.07900341796874999,-0.15561279296875,10.22495751953125,0.0,0.0,0.0010652644360316954,0.914274380315785,0.2975270552720906,343.1740965896257
2026-09-29 20:27:30.773808640,0.07900341796874999,-0.14124853515625,10.16989453125,0.0,0.0,0.0,0.9106480059029689,0.2958672679783444,343.1744159230702
2026-09-29 20:27:30.800893952,0.10533789062499999,-0.13885449218749998,10.18186474609375,0.0,0.0,0.0010652644360316954,0.9076499352362284,0.2945666080503397,343.1750452202798
2026-09-29 20:27:30.800893952,0.11012597656249999,-0.1292783203125,10.162712402343749,0.0,0.0,0.0021305288720633907,0.9040783635765963,0.29295476870934783,343.1762805686511
2026-09-29 20:27:30.800893952,0.10294384765624999,-0.15561279296875,10.1938349609375,0.0,0.0,0.0010652644360316954,0.9008425890449667,0.29046237865437047,343.1772011939155
2026-09-29 20:27:30.813076224,0.11252001953124999,-0.16997705078124997,10.234533691406249,0.0,0.0,0.0,0.8976708147343849,0.2891754664085893,343.17752480512775
2026-09-29 20:27:30.813370112,0.08618554687499999,-0.14364257812499998,10.1746826171875,0.0,0.0,0.0021305288720633907,0.8938034875452859,0.2875760015648597,343.1784535779322
2026-09-29 20:27:30.813370112,0.08618554687499999,-0.16040087890625,10.1651064453125,0.0,0.0,0.0010652644360316954,0.8908232963703252,0.2857343176260197,343.1790738256774
2026-09-29 20:27:30.813370112,0.10294384765624999,-0.17476513671875,10.217775390624999,0.0,0.0,0.0010652644360316954,0.8874119800236296,0.2840553752227642,343.1796935900283
2026-09-29 20:27:30.813370112,0.09336767578124999,-0.11970214843749999,10.2034111328125,0.0,0.0,0.0021305288720633907,0.8842456932401596,0.282170749712436,343.18092351949656
2026-09-29 20:27:30.882295296,0.1005498046875,-0.13885449218749998,10.141166015624998,0.0,0.0,0.0010652644360316954,0.8815325886789929,0.2804049190089096,343.18154545057035
2026-09-29 20:27:30.920517632,0.1005498046875,-0.15321875,10.167500488281249,0.0,0.0,0.0021305288720633907,0.8787164327891442,0.2788350440472894,343.1827820838192
2026-09-29 20:27:30.920517632,0.10773193359375,-0.12688427734375,10.14834814453125,0.0,0.0010652644360316954,0.0010652644360316954,0.875447979286483,0.2776824488752778,343.1837221700014
2026-09-29 20:27:30.948359424,0.0813974609375,-0.15800683593749998,10.20819921875,0.0,0.0,0.0010652644360316954,0.8723185123954011,0.27641734591611594,343.1843484722236
2026-09-29 20:27:30.948359424,0.11730810546874999,-0.13885449218749998,10.21059326171875,0.0,0.0,0.0021305288720633907,0.8692871308847057,0.27457862534972605,343.1852697601272
2026-09-29 20:27:30.948359424,0.11012597656249999,-0.17237109374999998,10.239321777343749,0.0,0.0,0.0021305288720633907,0.8661196444773211,0.2723620537633718,343.1861966525555
2026-09-29 20:27:30.948359424,0.08857958984374999,-0.15321875,10.246503906249998,0.0,-0.0010652644360316954,0.0010652644360316954,0.8624719980084151,0.2702972801932388,343.1868176288764
2026-09-29 20:27:30.948359424,0.1005498046875,-0.13885449218749998,10.268050292968748,0.0,0.0,0.0021305288720633907,0.8591782526185399,0.2685191002600651,343.18805388419787
2026-09-29 20:27:30.948359424,0.07182128906249999,-0.14364257812499998,10.18186474609375,0.0,0.0,0.0010652644360316954,0.8563537300813748,0.2665813556116835,343.1886761116468
2026-09-29 20:27:30.948359424,0.11012597656249999,-0.11012597656249999,10.22495751953125,0.0,-0.0010652644360316954,0.0021305288720633907,0.8531434680645795,0.26466208825927806,343.18929366434924
2026-09-29 20:27:30.948359424,0.07421533203125,-0.16040087890625,10.25368603515625,0.0,0.0,0.0021305288720633907,0.8499234764154052,0.2630816170723038,343.19053208002293
2026-09-29 20:27:30.948359424,0.11252001953124999,-0.13885449218749998,10.19144091796875,0.0,0.0,0.0021305288720633907,0.8466008729984373,0.26150734535624637,343.1914590224948
2026-09-29 20:27:30.948359424,0.1149140625,-0.1292783203125,10.17707666015625,-0.0010652644360316954,0.0,0.0021305288720633907,0.8428022142582753,0.2598950380001724,343.1926963607453
2026-09-29 20:27:30.948359424,0.07182128906249999,-0.11252001953124999,10.18665283203125,0.0,0.0,0.0010652644360316954,0.8399510082880743,0.2579856493726859,343.1936242426332
2026-09-29 20:27:31.027464448,0.07900341796874999,-0.14124853515625,10.256080078124999,0.0,-0.0010652644360316954,0.0021305288720633907,0.8369387131646442,0.2557058424177073,343.19454395629145
2026-09-29 20:27:31.027464448,0.11252001953124999,-0.15800683593749998,10.172288574218749,0.0,0.0,0.0,0.8335885835764654,0.2539666838526549,343.1951720715402
2026-09-29 20:27:31.063142400,0.10294384765624999,-0.13167236328124998,10.201017089843749,0.0,0.0,0.0021305288720633907,0.8303037125840735,0.2525010037472011,343.19640950673926
2026-09-29 20:27:31.106594304,0.06942724609374999,-0.1484306640625,10.244109863281249,-0.0010652644360316954,0.0,0.0010652644360316954,0.8262659283060112,0.25072880528263425,343.19703277427567
2026-09-29 20:27:31.106594304,0.0909736328125,-0.1292783203125,10.18665283203125,0.0,0.0,0.0010652644360316954,0.8230813841525235,0.24913929603589366,343.19796107699756
2026-09-29 20:27:31.106594304,0.10533789062499999,-0.13885449218749998,10.205805175781249,0.0,0.0,0.0,0.8205516637688087,0.24727054248473979,343.19827504731535
2026-09-29 20:27:31.106594304,0.08618554687499999,-0.1484306640625,10.18186474609375,0.0,0.0,0.0010652644360316954,0.8178357665445743,0.24495301613337087,343.19889469552254
2026-09-29 20:27:31.122234368,0.06942724609374999,-0.1484306640625,10.1938349609375,0.0,-0.0010652644360316954,0.0010652644360316954,0.8148326214092361,0.24291782319058267,343.1995146517039
2026-09-29 20:27:31.122234368,0.09815576171875,-0.12209619140624998,10.217775390624999,0.0,0.0,0.0021305288720633907,0.8113755235347785,0.24134714192608187,343.20044352861225
2026-09-29 20:27:31.153476352,0.11730810546874999,-0.14603662109374999,10.246503906249998,-0.0010652644360316954,-0.0021305288720633907,0.0021305288720633907,0.8077315937428051,0.23920255933937087,343.2016739406392
2026-09-29 20:27:31.200350976,0.10294384765624999,-0.1484306640625,10.20819921875,0.0,0.0,0.0010652644360316954,0.8045977774846221,0.23760200887965616,343.20230222749944
2026-09-29 20:27:31.200350976,0.10533789062499999,-0.13406640625,10.157924316406248,0.0,0.0,0.0010652644360316954,0.8015638852019575,0.23588498631829635,343.2029267905719
2026-09-29 20:27:31.200350976,0.12209619140624998,-0.13406640625,10.19144091796875,0.0010652644360316954,0.0,0.0,0.799045889325196,0.23397490185331296,343.2035511969791
2026-09-29 20:27:31.238116864,0.15082470703124998,-0.12688427734375,10.2034111328125,0.0,0.0,0.0021305288720633907,0.7961189488862754,0.2330978766431247,343.20449866655366
2026-09-29 20:27:31.263241728,0.09336767578124999,-0.1292783203125,10.184258789062499,0.0,0.0,0.0010652644360316954,0.793553266055846,0.23119276009905773,343.2051283707493
2026-09-29 20:27:31.278249216,0.1292783203125,-0.1484306640625,10.21059326171875,0.0,0.0,0.0021305288720633907,0.7909271846885471,0.22973678226324976,343.2060631074167
2026-09-29 20:27:31.278249216,0.07900341796874999,-0.14124853515625,10.18665283203125,0.0,0.0,0.0021305288720633907,0.7879618019138067,0.22775831631945082,343.20668732414845
2026-09-29 20:27:31.278249216,0.1005498046875,-0.162794921875,10.179470703124998,0.0,0.0,0.0010652644360316954,0.7853228729972681,0.22681314872383498,343.20762638968426
2026-09-29 20:27:31.278249216,0.0909736328125,-0.15561279296875,10.196229003906248,0.0,0.0,0.0021305288720633907,0.7826132582739697,0.22604355141781057,343.20856938119925
2026-09-29 20:27:31.278249216,0.13885449218749998,-0.15321875,10.2417158203125,0.0,0.0,0.0010652644360316954,0.7798993720856955,0.22388086318273928,343.20949576206266
2026-09-29 20:27:31.278249216,0.16040087890625,-0.14124853515625,10.22016943359375,0.0,0.0,0.0010652644360316954,0.776911277113886,0.22246971950884317,343.21012963982434
2026-09-29 20:27:31.278249216,0.09815576171875,-0.14603662109374999,10.19144091796875,0.0,-0.0010652644360316954,0.0010652644360316954,0.7737441669128244,0.22017334376823888,343.21075045918917
2026-09-29 20:27:31.278249216,0.10533789062499999,-0.13885449218749998,10.2417158203125,0.0,0.0,0.0,0.7705166941880104,0.21869426407954767,343.2110755936168
2026-09-29 20:27:31.278249216,0.05745703125,-0.16040087890625,10.18186474609375,0.0,-0.0010652644360316954,0.0,0.7675595701078707,0.2170184431741299,343.2113965579759
2026-09-29 20:27:31.278249216,0.11252001953124999,-0.1484306640625,10.167500488281249,0.0,0.0,0.0010652644360316954,0.763828128980628,0.21577443200595908,343.21232723388607
2026-09-29 20:27:31.278249216,0.07900341796874999,-0.09815576171875,10.21059326171875,0.0,-0.0010652644360316954,0.0021305288720633907,0.7611434256502961,0.21399159720252997,343.2132585015755
2026-09-29 20:27:31.278249216,0.0909736328125,-0.14124853515625,10.2034111328125,0.0,0.0,0.0,0.758005671128537,0.21274949459570208,343.2135853822403
2026-09-29 20:27:31.278249216,0.15082470703124998,-0.14364257812499998,10.217775390624999,0.0,0.0,0.0021305288720633907,0.7553649339159413,0.2114479780155969,343.21452103900225
2026-09-29 20:27:31.278249216,0.08618554687499999,-0.16040087890625,10.21538134765625,0.0,0.0,0.0010652644360316954,0.7523718573095067,0.20950470483167324,343.2151474357529
2026-09-29 20:27:31.278249216,0.11252001953124999,-0.15800683593749998,10.2034111328125,0.0,0.0,0.0021305288720633907,0.7491919236261092,0.20765046503199236,343.2163838273886
2026-09-29 20:27:31.293883904,0.09576171874999999,-0.1292783203125,10.18186474609375,0.0,0.0,0.0010652644360316954,0.746469349360676,0.20592821012073373,343.2170102584786
2026-09-29 20:27:31.293883904,0.09815576171875,-0.13406640625,10.2034111328125,0.0,0.0,0.0021305288720633907,0.74356490872743,0.20461559538691704,343.217946405178
2026-09-29 20:27:31.293883904,0.11012597656249999,-0.14364257812499998,10.167500488281249,0.0,0.0,0.0010652644360316954,0.7403076413747751,0.20347815248549905,343.2188864071225
2026-09-29 20:27:31.293883904,0.14603662109374999,-0.13167236328124998,10.20819921875,0.0,0.0010652644360316954,0.0010652644360316954,0.7372735493585143,0.20240129719164202,343.2195209786507
2026-09-29 20:27:31.293883904,0.09576171874999999,-0.15800683593749998,10.17707666015625,0.0,0.0,0.0010652644360316954,0.7351142244385229,0.20048987245606031,343.2201486763768
2026-09-29 20:27:31.309510400,0.08618554687499999,-0.13646044921875,10.1651064453125,0.0,0.0,0.0010652644360316954,0.7322727880642588,0.19851609111316523,343.2207713082939
2026-09-29 20:27:31.356381184,0.1149140625,-0.1484306640625,10.19144091796875,0.0,0.0,0.0010652644360316954,0.7294770078287641,0.1975185720332954,343.221101732371
2026-09-29 20:27:31.356381184,0.08618554687499999,-0.16518896484374998,10.179470703124998,0.0,0.0,0.0010652644360316954,0.7255315924567834,0.19639956534799902,343.22173661452376
2026-09-29 20:27:31.387631104,0.1292783203125,-0.13406640625,10.189046874999999,0.0,0.0,0.0021305288720633907,0.7229512913245054,0.19507226577780348,343.22328366383977
2026-09-29 20:27:31.387631104,0.055062988281249996,-0.13646044921875,10.129195800781249,0.0,-0.0010652644360316954,0.0010652644360316954,0.7202664990161549,0.19320698663041005,343.2236059397305
2026-09-29 20:27:31.387631104,0.08857958984374999,-0.1484306640625,10.201017089843749,0.0,0.0,0.0010652644360316954,0.7176715733004649,0.19194764780702972,343.22454280554996
2026-09-29 20:27:31.435447296,0.10294384765624999,-0.15800683593749998,10.227351562499999,0.0,-0.0010652644360316954,0.0031957933080950856,0.7147487620218475,0.19054964242033107,343.22608987338805
2026-09-29 20:27:31.435447296,0.09336767578124999,-0.15800683593749998,10.20819921875,0.0,0.0,0.0010652644360316954,0.711784789812993,0.1897129361092661,343.22642390115243
2026-09-29 20:27:31.482809856,0.09576171874999999,-0.11970214843749999,10.2034111328125,0.0,0.0,0.0010652644360316954,0.7091472367160123,0.18804801081541875,343.2273569423752
2026-09-29 20:27:31.482809856,0.124490234375,-0.13406640625,10.167500488281249,0.0,0.0010652644360316954,0.0021305288720633907,0.7068592541028352,0.1872923326509291,343.2279974056978
2026-09-29 20:27:31.482809856,0.06463916015625,-0.14364257812499998,10.2321396484375,0.0,0.0,0.0010652644360316954,0.7043651168186787,0.18570373761930606,343.22862958744287
2026-09-29 20:27:31.482809856,0.11252001953124999,-0.12209619140624998,10.212987304687498,0.0,0.0,0.0010652644360316954,0.7011561153145797,0.18442145037215668,343.22926163036834
2026-09-29 20:27:31.482809856,0.1149140625,-0.12209619140624998,10.141166015624998,-0.0010652644360316954,-0.0010652644360316954,0.0010652644360316954,0.697730837036409,0.18212234001741995,343.22988675226946
2026-09-29 20:27:31.482809856,0.10533789062499999,-0.15082470703124998,10.198623046875,0.0,0.0,0.0010652644360316954,0.69504365006502,0.1807827366119308,343.23051958057084
2026-09-29 20:27:31.482809856,0.11730810546874999,-0.124490234375,10.11961962890625,0.0,0.0,0.0021305288720633907,0.6916824049722972,0.17903914780549285,343.23175799281216
2026-09-29 20:27:31.482809856,0.09815576171875,-0.13646044921875,10.189046874999999,0.0,-0.0010652644360316954,0.0010652644360316954,0.6890760960541302,0.1768144209263559,343.23268912758806
2026-09-29 20:27:31.482809856,0.10294384765624999,-0.11970214843749999,10.21538134765625,0.0,0.0,0.0010652644360316954,0.6859398222729514,0.1751531112785252,343.2333183881215
2026-09-29 20:27:31.498438656,0.12209619140624998,-0.13167236328124998,10.212987304687498,0.0,0.0,0.0010652644360316954,0.6824096833502792,0.17434323246308084,343.23395828509643
2026-09-29 20:27:31.498438656,0.12209619140624998,-0.1292783203125,10.22016943359375,-0.0010652644360316954,-0.0010652644360316954,0.0010652644360316954,0.6786757951215823,0.1721698916173014,343.23458405077247
2026-09-29 20:27:31.592182272,0.10294384765624999,-0.15800683593749998,10.229745605468748,0.0,-0.0010652644360316954,0.0010652644360316954,0.675599062433298,0.17041175531150948,343.23521345073686
2026-09-29 20:27:31.592182272,0.13406640625,-0.13406640625,10.22495751953125,0.0,-0.0010652644360316954,0.0021305288720633907,0.6725131085829263,0.1682150799344791,343.2361436873316
2026-09-29 20:27:31.592182272,0.07900341796874999,-0.14364257812499998,10.172288574218749,0.0,0.0,0.0,0.6695916076505181,0.16678257784783426,343.2367766917399
2026-09-29 20:27:31.639056128,0.076609375,-0.12688427734375,10.14834814453125,0.0,0.0,0.0010652644360316954,0.6670142445036019,0.16583100282982802,343.23741329400946
2026-09-29 20:27:31.639056128,0.08857958984374999,-0.124490234375,10.184258789062499,0.0,0.0,0.0021305288720633907,0.6648553068665181,0.16395000828054695,343.23834477268446
2026-09-29 20:27:31.639056128,0.13406640625,-0.13167236328124998,10.21538134765625,0.0,0.0,0.0010652644360316954,0.6623873036244993,0.16268431579154016,343.2389782614495
2026-09-29 20:27:31.639056128,0.11012597656249999,-0.15321875,10.222563476562499,0.0,0.0,0.0010652644360316954,0.6599190303752014,0.16022814362349788,343.23960475924355
2026-09-29 20:27:31.686292224,0.07421533203125,-0.14124853515625,10.227351562499999,0.0,-0.0010652644360316954,0.0010652644360316954,0.6572867733710375,0.15866465803065255,343.2402343534988
2026-09-29 20:27:31.686292224,0.12688427734375,-0.1484306640625,10.234533691406249,0.0,0.0010652644360316954,0.0021305288720633907,0.6548899951966758,0.1573732768123328,343.24178376338205
2026-09-29 20:27:31.686292224,0.09815576171875,-0.15321875,10.196229003906248,0.0,0.0,0.0010652644360316954,0.6520137659319938,0.15620043440236547,343.2424206836573
2026-09-29 20:27:31.686292224,0.07900341796874999,-0.14603662109374999,10.2321396484375,0.0,0.0,0.0010652644360316954,0.6490152824042619,0.15496070485090815,343.2433600097847
2026-09-29 20:27:31.686292224,0.0813974609375,-0.1484306640625,10.157924316406248,0.0,0.0,0.0010652644360316954,0.6462855641768666,0.15369971934886786,343.243993908026
2026-09-29 20:27:31.686292224,0.14364257812499998,-0.14124853515625,10.155530273437499,0.0,0.0,0.0021305288720633907,0.64379388588261,0.1527308209011184,343.2449363418793
2026-09-29 20:27:31.686292224,0.11252001953124999,-0.162794921875,10.196229003906248,0.0,0.0,0.0010652644360316954,0.6411077713758209,0.1509160058005202,343.2458724334519
2026-09-29 20:27:31.701914880,0.13885449218749998,-0.14364257812499998,10.205805175781249,0.0,-0.0010652644360316954,0.0031957933080950856,0.638038615136474,0.14939129536174023,343.24711340691175
2026-09-29 20:27:31.701914880,0.10294384765624999,-0.14603662109374999,10.246503906249998,0.0,0.0,0.0021305288720633907,0.6350956176332427,0.1478045252692997,343.2483575380616
2026-09-29 20:27:31.701914880,0.11730810546874999,-0.1292783203125,10.212987304687498,0.0,-0.0010652644360316954,0.0021305288720633907,0.6317956668823901,0.14601071408942384,343.2492940888167
2026-09-29 20:27:31.701914880,0.09336767578124999,-0.13885449218749998,10.234533691406249,0.0,0.0,0.0010652644360316954,0.6287571618855036,0.1446457224644062,343.25023376269075
2026-09-29 20:27:31.701914880,0.11970214843749999,-0.13885449218749998,10.217775390624999,0.0,0.0,0.0010652644360316954,0.6260419995229929,0.14333949404241864,343.25086833354254
2026-09-29 20:27:31.701914880,0.13885449218749998,-0.17476513671875,10.18186474609375,0.0,0.0,0.0010652644360316954,0.6228542540055075,0.14157216357807884,343.2514999024501
2026-09-29 20:27:31.701914880,0.06942724609374999,-0.12688427734375,10.201017089843749,0.0,0.0,0.0010652644360316954,0.6198726079271186,0.1401830687896284,343.2518287679095
2026-09-29 20:27:31.717570560,0.07421533203125,-0.12688427734375,10.179470703124998,0.0010652644360316954,0.0,0.0010652644360316954,0.6177041509733674,0.13922988308194625,343.25246654828413
2026-09-29 20:27:31.733167616,0.162794921875,-0.1292783203125,10.172288574218749,0.0,0.0,0.0031957933080950856,0.6150033264180282,0.13812393720154634,343.2540168170012
2026-09-29 20:27:31.748870400,0.11970214843749999,-0.14124853515625,10.222563476562499,0.0,0.0,0.0,0.6131923781273829,0.13596026193518088,343.25434068032837
2026-09-29 20:27:31.748870400,0.10773193359375,-0.13885449218749998,10.17707666015625,0.0,0.0,0.0010652644360316954,0.6096764888749362,0.13437722697893684,343.2552771666037
2026-09-29 20:27:31.764180224,0.13406640625,-0.14603662109374999,10.16989453125,0.0,0.0,0.0021305288720633907,0.6069909649074761,0.1332980245936145,343.2565259073499
2026-09-29 20:27:31.764180224,0.09576171874999999,-0.15082470703124998,10.15313623046875,0.0,0.0,0.0010652644360316954,0.6046776401628202,0.13188261196774367,343.2571618955102
2026-09-29 20:27:31.795464704,0.09576171874999999,-0.1484306640625,10.18665283203125,0.0,0.0,0.0,0.6020413897084419,0.13036417310506676,343.25779405057517
2026-09-29 20:27:31.811092480,0.07421533203125,-0.17476513671875,10.19144091796875,0.0,0.0010652644360316954,0.0021305288720633907,0.5996887337927492,0.12945200771000204,343.2590428985436
2026-09-29 20:27:31.811092480,0.07421533203125,-0.12209619140624998,10.145954101562499,0.0,0.0,0.0010652644360316954,0.5969391617895418,0.12810898850750896,343.259674288671
2026-09-29 20:27:31.826686976,0.09336767578124999,-0.11970214843749999,10.268050292968748,0.0,0.0,0.0,0.5944334252650265,0.12617613728622734,343.2599986278844
2026-09-29 20:27:31.826686976,0.10533789062499999,-0.1484306640625,10.2034111328125,0.0,0.0,0.0021305288720633907,0.5919288046802692,0.12451483453857272,343.26124164493615
2026-09-29 20:27:31.826686976,0.11730810546874999,-0.13406640625,10.162712402343749,0.0,0.0,0.0010652644360316954,0.5888216335917301,0.12295748132475678,343.2618768668585
2026-09-29 20:27:31.826686976,0.08618554687499999,-0.15561279296875,10.22016943359375,0.0,0.0,0.0021305288720633907,0.5861879094602781,0.12165223448386822,343.26281774567735
2026-09-29 20:27:31.842316288,0.11012597656249999,-0.14364257812499998,10.18186474609375,0.0,-0.0010652644360316954,0.0,0.5830899849480567,0.12032748790086514,343.2631449819311
2026-09-29 20:27:31.842316288,0.09576171874999999,-0.15800683593749998,10.201017089843749,0.0,0.0,0.0010652644360316954,0.580227472715221,0.11828731168605053,343.26377107197817
2026-09-29 20:27:31.857936384,0.11012597656249999,-0.12688427734375,10.179470703124998,0.0,-0.0010652644360316954,0.0021305288720633907,0.5775180981861824,0.11652729407304094,343.2647088980179
2026-09-29 20:27:31.873591296,0.13406640625,-0.12688427734375,10.21538134765625,0.0,0.0010652644360316954,0.0,0.5751173240599253,0.1154797850063392,343.2650427193549
2026-09-29 20:27:31.889188096,0.08618554687499999,-0.13406640625,10.16989453125,0.0,0.0,0.0021305288720633907,0.5725640721526222,0.11385556483033238,343.2662893418105
2026-09-29 20:27:31.904813824,0.09336767578124999,-0.14364257812499998,10.1938349609375,0.0,0.0,0.0,0.5702938804908201,0.11273347894824313,343.2666204222162
2026-09-29 20:27:31.904813824,0.06942724609374999,-0.13406640625,10.172288574218749,0.0,0.0,0.0021305288720633907,0.5679067552808144,0.11116933877100646,343.2675585377574
2026-09-29 20:27:31.920439040,0.0622451171875,-0.16040087890625,10.1746826171875,0.0,0.0021305288720633907,0.0021305288720633907,0.5657895642270997,0.11048359988606427,343.26850335696037
2026-09-29 20:27:31.920439040,0.12688427734375,-0.10773193359375,10.1938349609375,0.0,0.0,0.0010652644360316954,0.5630823675114799,0.10982537355416229,343.26944764693644
2026-09-29 20:27:31.936060160,0.08857958984374999,-0.16518896484374998,10.19144091796875,0.0,0.0,0.0,0.561094636587948,0.10865871292665398,343.26978248953134
2026-09-29 20:27:31.951685632,0.09336767578124999,-0.15561279296875,10.205805175781249,0.0,0.0,0.0,0.5580909132141646,0.10713591572815317,343.27011007322534
2026-09-29 20:27:31.967312640,0.10294384765624999,-0.1484306640625,10.1746826171875,0.0,0.0010652644360316954,0.0010652644360316954,0.5554352880361327,0.10662010492570202,343.27075233439587
2026-09-29 20:27:31.967312640,0.09336767578124999,-0.13646044921875,10.150742187499999,0.0,0.0,0.0021305288720633907,0.5523619365373128,0.10587690566881736,343.27169657585193
2026-09-29 20:27:31.967312640,0.11970214843749999,-0.15800683593749998,10.212987304687498,0.0,0.0,0.0021305288720633907,0.5493888661200673,0.10471877340372922,343.2732485060585
2026-09-29 20:27:31.983528960,0.10773193359375,-0.13885449218749998,10.198623046875,0.0,0.0,0.0010652644360316954,0.5470932135734218,0.10315015601080156,343.27357697816626
2026-09-29 20:27:31.999036928,0.1005498046875,-0.1484306640625,10.150742187499999,0.0,0.0,0.0021305288720633907,0.5441942804028781,0.10217569336050975,343.2745216876388
2026-09-29 20:27:31.999036928,0.08379150390625,-0.1292783203125,10.22495751953125,0.0,-0.0010652644360316954,0.0010652644360316954,0.5412778975332774,0.1007790231802556,343.27546061973374
2026-09-29 20:27:32.061881088,0.08857958984374999,-0.14603662109374999,10.133983886718749,0.0,-0.0010652644360316954,0.0010652644360316954,0.5384414593138793,0.09934730162679982,343.276094616062
2026-09-29 20:27:32.093131008,0.08379150390625,-0.162794921875,10.138771972656249,0.0,0.0,0.0010652644360316954,0.5356930103498213,0.09817113122548704,343.276731685875
2026-09-29 20:27:32.108755456,0.12209619140624998,-0.13885449218749998,10.205805175781249,0.0,-0.0010652644360316954,0.0010652644360316954,0.5333233070533339,0.09637127319774517,343.27766794865784
2026-09-29 20:27:32.108755456,0.08857958984374999,-0.13646044921875,10.172288574218749,0.0,0.0,0.0010652644360316954,0.5311164291777098,0.09495008385116702,343.2783050652036
2026-09-29 20:27:32.140005120,0.12688427734375,-0.15321875,10.20819921875,0.0,0.0,0.0010652644360316954,0.5285419629254372,0.09310655186641151,343.2789364944373
2026-09-29 20:27:32.155630848,0.10773193359375,-0.162794921875,10.17707666015625,0.0,0.0,0.0021305288720633907,0.5259180739892783,0.09143652937728332,343.2798759818184
2026-09-29 20:27:32.155630848,0.12688427734375,-0.15800683593749998,10.196229003906248,0.0,0.0,0.0010652644360316954,0.5230492869724157,0.08977298433207505,343.28051035710723
2026-09-29 20:27:32.155630848,0.11970214843749999,-0.1675830078125,10.205805175781249,0.0,0.0010652644360316954,0.0010652644360316954,0.5207021563400533,0.08840444340913738,343.28114757293133
2026-09-29 20:27:32.155630848,0.08379150390625,-0.15321875,10.284808593749998,0.0,0.0,0.0021305288720633907,0.5184509065669857,0.08707503202116278,343.2820901826285
2026-09-29 20:27:32.155630848,0.12688427734375,-0.13406640625,10.212987304687498,-0.0010652644360316954,0.0,0.0010652644360316954,0.5152616439417241,0.08603909741053349,343.2830327380313
2026-09-29 20:27:32.171257856,0.13167236328124998,-0.1292783203125,10.229745605468748,0.0,0.0,0.0010652644360316954,0.5128208623720809,0.08429307027039293,343.28366768725965
2026-09-29 20:27:32.171257856,0.11012597656249999,-0.15561279296875,10.1746826171875,0.0,0.0,0.0021305288720633907,0.5105710083488255,0.08275721402471015,343.2849156656255
2026-09-29 20:27:32.171257856,0.0813974609375,-0.1675830078125,10.167500488281249,0.0,0.0,0.0010652644360316954,0.5077575116128765,0.08177615313162766,343.28525089331686
2026-09-29 20:27:32.171257856,0.10773193359375,-0.15082470703124998,10.167500488281249,0.0,0.0,0.0021305288720633907,0.5053885359005676,0.08023431376145208,343.28619086233687
2026-09-29 20:27:32.186911488,0.11970214843749999,-0.1675830078125,10.2034111328125,0.0,0.0,0.0010652644360316954,0.503037605013793,0.07957326469804342,343.2868311146922
2026-09-29 20:27:32.186911488,0.1292783203125,-0.11730810546874999,10.236927734375,0.0,-0.0010652644360316954,0.0021305288720633907,0.5000277414723624,0.07788767682328078,343.2880764520451
2026-09-29 20:27:32.186911488,0.12688427734375,-0.17237109374999998,10.150742187499999,0.0,0.0,0.0021305288720633907,0.49739263159787084,0.07692153221451827,343.2893276102565
2026-09-29 20:27:32.202508288,0.10294384765624999,-0.11730810546874999,10.189046874999999,0.0010652644360316954,0.0,0.0010652644360316954,0.4948865675426051,0.07564498672067217,343.28996502208616
2026-09-29 20:27:32.202508288,0.11730810546874999,-0.1292783203125,10.189046874999999,0.0,0.0,0.0021305288720633907,0.4930435978415006,0.07440638079479112,343.2909056560143
2026-09-29 20:27:32.218762752,0.13885449218749998,-0.124490234375,10.20819921875,0.0,0.0,0.0010652644360316954,0.49048978788696995,0.07277390558629257,343.2918461798132
2026-09-29 20:27:32.218762752,0.08857958984374999,-0.14124853515625,10.205805175781249,0.0,0.0,0.0,0.48786133058650233,0.0716011802143145,343.29218202424994
2026-09-29 20:27:32.233866240,0.08379150390625,-0.11730810546874999,10.17707666015625,0.0,-0.0010652644360316954,0.0010652644360316954,0.485528592968023,0.070201039072782,343.2928176975314
2026-09-29 20:27:32.249498624,0.067033203125,-0.162794921875,10.201017089843749,0.0010652644360316954,0.0,0.0,0.4836133830920395,0.06905888395824637,343.2931511644351
2026-09-29 20:27:32.249498624,0.07900341796874999,-0.13167236328124998,10.196229003906248,0.0,0.0010652644360316954,0.0010652644360316954,0.4816181175352376,0.06841927041594462,343.2937922006244
2026-09-29 20:27:32.265126400,0.07900341796874999,-0.12209619140624998,10.184258789062499,0.0,-0.0010652644360316954,0.0021305288720633907,0.4791396281596388,0.06666492759007082,343.2947307407447
2026-09-29 20:27:32.296781312,0.09815576171875,-0.12688427734375,10.22495751953125,0.0,0.0,0.0031957933080950856,0.47741862644017813,0.06543894564790417,343.29628219700754
2026-09-29 20:27:32.296781312,0.07900341796874999,-0.13885449218749998,10.201017089843749,0.0,0.0,0.0010652644360316954,0.47571337587833074,0.06366639830241143,343.29691566407996
2026-09-29 20:27:32.296781312,0.11012597656249999,-0.13646044921875,10.201017089843749,0.0,0.0,0.0010652644360316954,0.4736710606340133,0.06256081877155584,343.29755428323585
2026-09-29 20:27:32.296781312,0.10773193359375,-0.17237109374999998,10.236927734375,0.0,0.0,0.0021305288720633907,0.47153058542077736,0.06150634790082765,343.29880582999425
2026-09-29 20:27:32.312416512,0.076609375,-0.162794921875,10.20819921875,0.0,0.0,0.0010652644360316954,0.4692154614300611,0.059978002457904245,343.29974691696486
2026-09-29 20:27:32.312416512,0.09815576171875,-0.1484306640625,10.234533691406249,0.0,-0.0010652644360316954,0.0031957933080950856,0.46635037594927775,0.05872831063477969,343.3009932760871
2026-09-29 20:27:32.328038400,0.11252001953124999,-0.16040087890625,10.22495751953125,0.0,0.0,0.0010652644360316954,0.4642184109384475,0.057486525437913015,343.3016321562101
2026-09-29 20:27:32.328038400,0.14364257812499998,-0.09815576171875,10.196229003906248,0.0,0.0,0.0,0.4613892777471972,0.05650234636458571,343.3019681924304
2026-09-29 20:27:32.343665664,0.11252001953124999,-0.11730810546874999,10.2034111328125,0.0010652644360316954,0.0,0.0010652644360316954,0.45993042527414935,0.05574315722867505,343.30261231505904
2026-09-29 20:27:32.343665664,0.09576171874999999,-0.1292783203125,10.234533691406249,0.0,0.0,0.0021305288720633907,0.4576770163779479,0.05429287100068067,343.3035541316037
2026-09-29 20:27:32.359289600,0.09576171874999999,-0.14603662109374999,10.196229003906248,0.0,0.0,0.0021305288720633907,0.45475450807356005,0.05317455532425346,343.30480359105536
2026-09-29 20:27:32.374915072,0.11730810546874999,-0.11252001953124999,10.198623046875,0.0,0.0,0.0010652644360316954,0.45300544275712434,0.05167647481365205,343.3057454632853
2026-09-29 20:27:32.390581760,0.124490234375,-0.12688427734375,10.18186474609375,0.0,0.0010652644360316954,0.0010652644360316954,0.45062348242285055,0.050661906916492444,343.3063869887431
2026-09-29 20:27:32.390581760,0.11730810546874999,-0.14364257812499998,10.14834814453125,0.0,0.0,0.0021305288720633907,0.44871292414743347,0.04890168946398106,343.30763190708194
2026-09-29 20:27:32.406162176,0.05027490234375,-0.12209619140624998,10.155530273437499,0.0,0.0,0.0021305288720633907,0.4467775069056888,0.047107369717784855,343.3085713957714
2026-09-29 20:27:32.422536960,0.12688427734375,-0.14603662109374999,10.196229003906248,0.0,-0.0010652644360316954,0.0010652644360316954,0.44439626499124635,0.04592810184553652,343.30920831157755
2026-09-29 20:27:32.422536960,0.09815576171875,-0.11252001953124999,10.198623046875,0.0,-0.0010652644360316954,0.0021305288720633907,0.441408381390703,0.04403372440240066,343.3101479113186
2026-09-29 20:27:32.453175552,0.08857958984374999,-0.1149140625,10.2321396484375,-0.0010652644360316954,0.0,0.0,0.43887323233367725,0.04294282264535589,343.3104822979431
2026-09-29 20:27:32.453175552,0.07421533203125,-0.15321875,10.205805175781249,0.0,0.0,0.0021305288720633907,0.43626491585451144,0.04228669204466322,343.31142930867736
2026-09-29 20:27:32.453175552,0.0622451171875,-0.14124853515625,10.1746826171875,0.0,0.0,0.0021305288720633907,0.43375791534594205,0.04139350438788156,343.3123739328614
2026-09-29 20:27:32.468800512,0.0909736328125,-0.11252001953124999,10.20819921875,0.0010652644360316954,0.0,0.0010652644360316954,0.4316802733097956,0.04050206184977374,343.3133187176983
2026-09-29 20:27:32.484425728,0.09815576171875,-0.1292783203125,10.227351562499999,0.0,0.0,0.0021305288720633907,0.4288604019443694,0.0397585149304333,343.31426593925016
2026-09-29 20:27:32.484425728,0.10773193359375,-0.15082470703124998,10.15313623046875,0.0,0.0,0.0021305288720633907,0.426260558290091,0.03868285508001474,343.31551600598385
2026-09-29 20:27:32.484425728,0.11252001953124999,-0.1292783203125,10.14834814453125,0.0,0.0,0.0010652644360316954,0.4239989489047368,0.037771026944190586,343.31646298197506
2026-09-29 20:27:32.531300608,0.08857958984374999,-0.1292783203125,10.1651064453125,0.0,-0.0010652644360316954,0.0021305288720633907,0.42142479156269563,0.03603665397164652,343.31770867202783
2026-09-29 20:27:32.544213248,0.076609375,-0.1675830078125,10.189046874999999,0.0,0.0,0.0010652644360316954,0.41911875965616513,0.03481111536216862,343.3186514687275
2026-09-29 20:27:32.557805056,0.09576171874999999,-0.16997705078124997,10.1938349609375,0.0,0.0,0.0021305288720633907,0.41697579362542714,0.03394615651320844,343.31959644183337
2026-09-29 20:27:32.557805056,0.14124853515625,-0.17715917968749997,10.189046874999999,0.0,-0.0010652644360316954,0.0010652644360316954,0.41425172193374926,0.032183570230805675,343.3202318068783
2026-09-29 20:27:32.563308800,0.09815576171875,-0.09815576171875,10.20819921875,0.0,0.0,0.0010652644360316954,0.41112618057176137,0.030836638590942583,343.3208716334069
2026-09-29 20:27:32.563308800,0.07182128906249999,-0.14603662109374999,10.18186474609375,0.0,0.0,0.0021305288720633907,0.4091936476211379,0.02974117960521146,343.3218170258956
2026-09-29 20:27:32.578942976,0.1005498046875,-0.13167236328124998,10.212987304687498,0.0,0.0,0.0021305288720633907,0.40704311674727406,0.028581660329306213,343.32276216043647
2026-09-29 20:27:32.578942976,0.08379150390625,-0.11730810546874999,10.17707666015625,0.0,-0.0010652644360316954,0.0010652644360316954,0.4049477316128322,0.027598321498445648,343.3234023719802
2026-09-29 20:27:32.578942976,0.07900341796874999,-0.15082470703124998,10.2034111328125,0.0,0.0,0.0010652644360316954,0.40241986904146254,0.026908964165142536,343.32404461277287
2026-09-29 20:27:32.594565120,0.09576171874999999,-0.12688427734375,10.189046874999999,0.0,0.0,0.0010652644360316954,0.4006286968167295,0.025624247580804754,343.32468254683863
2026-09-29 20:27:32.610232576,0.1149140625,-0.14603662109374999,10.1651064453125,0.0,0.0,0.0031957933080950856,0.3983897701572818,0.02413751293943661,343.32623614119206
2026-09-29 20:27:32.641684736,0.0813974609375,-0.15321875,10.227351562499999,0.0,0.0,0.0,0.39630173412228153,0.022277805570810324,343.3265670316513
2026-09-29 20:27:32.641684736,0.0909736328125,-0.13646044921875,10.246503906249998,0.0,0.0,0.0010652644360316954,0.3943327953743965,0.020869937360841608,343.327205255411
2026-09-29 20:27:32.641684736,0.13646044921875,-0.15321875,10.256080078124999,0.0,0.0010652644360316954,0.0010652644360316954,0.3924352566404315,0.019929443886416633,343.3278477955399
2026-09-29 20:27:32.641684736,0.0622451171875,-0.1484306640625,10.22495751953125,0.0,0.0,0.0,0.3901026683984001,0.01864832252310778,343.3281830259349
2026-09-29 20:27:32.657316864,0.10773193359375,-0.14124853515625,10.18665283203125,0.0,-0.0010652644360316954,0.0010652644360316954,0.38739095342526714,0.017101389365152306,343.3288193204372
2026-09-29 20:27:32.657316864,0.11970214843749999,-0.12688427734375,10.155530273437499,0.0,0.0010652644360316954,0.0010652644360316954,0.38534961199163575,0.01643328135905035,343.32946194053295
2026-09-29 20:27:32.672941568,0.1005498046875,-0.15321875,10.229745605468748,0.0,0.0,0.0010652644360316954,0.38312772874723033,0.014760841334159865,343.32979336936825
2026-09-29 20:27:32.688566272,0.059851074218749994,-0.14124853515625,10.184258789062499,0.0,0.0010652644360316954,0.0010652644360316954,0.3814625595036417,0.013991381395324276,343.33043600148363
2026-09-29 20:27:32.704192000,0.08618554687499999,-0.16040087890625,10.14834814453125,0.0,0.0,0.0010652644360316954,0.37923571337536344,0.013103637340167552,343.3310766365578
2026-09-29 20:27:32.719815680,0.10533789062499999,-0.1292783203125,10.229745605468748,0.0,0.0010652644360316954,0.0021305288720633907,0.3769585497434462,0.012653532661217114,343.33202657521707
2026-09-29 20:27:32.719815680,0.07900341796874999,-0.12688427734375,10.2321396484375,0.0,0.0,0.0010652644360316954,0.37483141420364174,0.011490738382260435,343.332667300956
2026-09-29 20:27:32.735442176,0.1005498046875,-0.14124853515625,10.22495751953125,0.0,0.0,0.0,0.3727729977208175,0.010291795636142026,343.333000937377
2026-09-29 20:27:32.735442176,0.076609375,-0.13406640625,10.179470703124998,0.0,-0.0010652644360316954,0.0021305288720633907,0.37017545847845756,0.00860097318111164,343.33394297069924
2026-09-29 20:27:32.751068160,0.06463916015625,-0.13406640625,10.189046874999999,0.0,0.0,0.0,0.3682883991406394,0.007142206206957298,343.33427482500736
2026-09-29 20:27:32.751068160,0.08857958984374999,-0.11970214843749999,10.22495751953125,0.0,0.0,0.0,0.3664424163240184,0.006165992209907375,343.3343054625597
2026-09-29 20:27:32.766690816,0.09336767578124999,-0.15321875,10.129195800781249,0.0,0.0,0.0010652644360316954,0.3647592659561791,0.004564529882277705,343.334942526782
2026-09-29 20:27:32.782316288,0.13646044921875,-0.17237109374999998,10.18186474609375,0.0,0.0,0.0021305288720633907,0.36243323827560364,0.0035593462988778935,343.3361939987765
2026-09-29 20:27:32.845294592,0.1292783203125,-0.1149140625,10.17707666015625,0.0,0.0,0.0010652644360316954,0.36000493691218577,0.0021063956152119565,343.33744544688193
2026-09-29 20:27:32.876542976,0.0909736328125,-0.124490234375,10.160318359375,0.0,0.0,0.0,0.35791269992753405,0.000871910930974252,343.3380866612293
2026-09-29 20:27:32.876542976,0.05027490234375,-0.08857958984374999,10.26565625,0.0,-0.0010652644360316954,0.0021305288720633907,0.35535915395366163,359.99955752857363,343.3390311666937
2026-09-29 20:27:32.892168448,0.09576171874999999,-0.14364257812499998,10.1938349609375,0.0,0.0,0.0021305288720633907,0.35334976448332506,359.99890821783794,343.33997752567683
2026-09-29 20:27:32.892168448,0.11970214843749999,-0.14364257812499998,10.167500488281249,0.0,0.0,0.0021305288720633907,0.35137575696394685,359.99811347105157,343.34123117443056
2026-09-29 20:27:32.892168448,0.06942724609374999,-0.11970214843749999,10.133983886718749,0.0,-0.0010652644360316954,0.0,0.34878466358857313,359.9966100603644,343.3415655038809
2026-09-29 20:27:32.907793408,0.11730810546874999,-0.11252001953124999,10.22495751953125,0.0,-0.0010652644360316954,0.0010652644360316954,0.3463302798666991,359.9955045641161,343.3422049765981
2026-09-29 20:27:32.907793408,0.09576171874999999,-0.10533789062499999,10.239321777343749,0.0,0.0,0.0010652644360316954,0.34391517963447205,359.9939914218127,343.3428444173319
2026-09-29 20:27:32.911641856,0.10773193359375,-0.15800683593749998,10.19144091796875,0.0,-0.0010652644360316954,0.0010652644360316954,0.3415744060788083,359.9927455714161,343.34348404913766
2026-09-29 20:27:32.912155648,0.12209619140624998,-0.14364257812499998,10.217775390624999,0.0,0.0,0.0010652644360316954,0.33967506350912746,359.9910386647752,343.34412188928434
2026-09-29 20:27:32.912155648,0.12688427734375,-0.13167236328124998,10.198623046875,0.0,0.0,0.0021305288720633907,0.3372627569529989,359.9896240998499,343.3453738933067
2026-09-29 20:27:32.912155648,0.06463916015625,-0.15800683593749998,10.2321396484375,0.0,0.0010652644360316954,0.0021305288720633907,0.3355713441619238,359.98875570182145,343.3466275797939
2026-09-29 20:27:32.939299840,0.11970214843749999,-0.14364257812499998,10.198623046875,0.0,0.0,0.0021305288720633907,0.33328582555978575,359.9876625633414,343.34787783953897
2026-09-29 20:27:32.954949888,0.05745703125,-0.1292783203125,10.19144091796875,0.0,-0.0010652644360316954,0.0010652644360316954,0.3307671694037841,359.9858201800107,343.34851590930504
2026-09-29 20:27:32.986175232,0.1149140625,-0.11970214843749999,10.227351562499999,0.0,-0.0021305288720633907,0.0031957933080950856,0.3283720079106614,359.9840810966421,343.3500678490234
2026-09-29 20:27:32.986175232,0.08379150390625,-0.10773193359375,10.196229003906248,0.0,0.0,0.0021305288720633907,0.3262978532140289,359.98298484759744,343.3513200380767
2026-09-29 20:27:32.986175232,0.06463916015625,-0.13406640625,10.18186474609375,0.0,-0.0010652644360316954,0.0010652644360316954,0.3239373619415836,359.98145769719355,343.3516532077624
2026-09-29 20:27:32.986175232,0.09336767578124999,-0.12688427734375,10.1938349609375,0.0,0.0,0.0010652644360316954,0.32192822917773556,359.9802350270236,343.35259853750995
2026-09-29 20:27:32.986175232,0.07182128906249999,-0.14364257812499998,10.201017089843749,-0.0010652644360316954,0.0,0.0010652644360316954,0.3191391321319317,359.97947920039087,343.3535474134031
2026-09-29 20:27:32.986175232,0.1005498046875,-0.13646044921875,10.17707666015625,0.0,0.0,0.0010652644360316954,0.3166489137150673,359.97873929425833,343.3541893068776
2026-09-29 20:27:32.986175232,0.09576171874999999,-0.15082470703124998,10.21538134765625,0.0,0.0,0.0021305288720633907,0.3148932980604725,359.9777760787178,343.35483136127317
2026-09-29 20:27:33.001830144,0.10294384765624999,-0.13167236328124998,10.189046874999999,0.0,0.0,0.0010652644360316954,0.3123043219029055,359.97675026178644,343.3551682125346
2026-09-29 20:27:33.017425664,0.11730810546874999,-0.16997705078124997,10.22016943359375,0.0,0.0,0.0031957933080950856,0.31026523301267284,359.97610606346524,343.3564221742282
2026-09-29 20:27:33.033797120,0.11012597656249999,-0.13167236328124998,10.1651064453125,0.0,0.0,0.0021305288720633907,0.3076706108678131,359.97534555178737,343.3573711392047
2026-09-29 20:27:33.048810496,0.07900341796874999,-0.15082470703124998,10.198623046875,0.0,0.0,0.0010652644360316954,0.3057840466288771,359.97427010139563,343.35801306602366
2026-09-29 20:27:33.048810496,0.076609375,-0.11012597656249999,10.217775390624999,0.0010652644360316954,0.0010652644360316954,0.0,0.3041947120538721,359.9738061166668,343.3586569270468
2026-09-29 20:27:33.064442880,0.10533789062499999,-0.15082470703124998,10.18186474609375,0.0,-0.0010652644360316954,0.0021305288720633907,0.30234084304082,359.9726915580788,343.3596025141849
2026-09-29 20:27:33.064442880,0.09336767578124999,-0.16040087890625,10.184258789062499,-0.0010652644360316954,-0.0010652644360316954,0.0010652644360316954,0.29963091855582247,359.97109066913634,343.36024148424775
2026-09-29 20:27:33.064442880,0.076609375,-0.124490234375,10.22495751953125,0.0,0.0,0.0010652644360316954,0.29769646287571033,359.9699846160394,343.3605770587883
2026-09-29 20:27:33.080072192,0.09815576171875,-0.17237109374999998,10.179470703124998,0.0,0.0,0.0010652644360316954,0.2956983083947499,359.96898529490915,343.361217583301
2026-09-29 20:27:33.095693568,0.09815576171875,-0.13646044921875,10.2034111328125,0.0,0.0010652644360316954,0.0021305288720633907,0.293917366141414,359.9687275224362,343.36247341686965
2026-09-29 20:27:33.095693568,0.09815576171875,-0.13646044921875,10.179470703124998,0.0,0.0,0.0010652644360316954,0.2919250319017578,359.9672272560351,343.3631124607924
2026-09-29 20:27:33.111318016,0.10533789062499999,-0.13646044921875,10.1938349609375,0.0,0.0,0.0021305288720633907,0.29035026173013967,359.965503102213,343.3640568987163
2026-09-29 20:27:33.128061440,0.09815576171875,-0.13406640625,10.229745605468748,0.0,0.0,0.0010652644360316954,0.2887227349358253,359.96444579297446,343.36500440976613
2026-09-29 20:27:33.143064832,0.07182128906249999,-0.11970214843749999,10.160318359375,0.0,0.0,0.0021305288720633907,0.28621056044627563,359.9631781923679,343.36595062870657
2026-09-29 20:27:33.158696960,0.11252001953124999,-0.13885449218749998,10.229745605468748,0.0,0.0,0.0021305288720633907,0.28465879116021764,359.96219123703054,343.366898103047
2026-09-29 20:27:33.158696960,0.10294384765624999,-0.13885449218749998,10.17707666015625,0.0,-0.0010652644360316954,0.0010652644360316954,0.28251359161770145,359.9605984415648,343.36753916838654
2026-09-29 20:27:33.158696960,0.12688427734375,-0.15800683593749998,10.2417158203125,0.0,0.0010652644360316954,0.0010652644360316954,0.2805174142687608,359.9599355116937,343.3684883724486
2026-09-29 20:27:33.174786816,0.09815576171875,-0.15800683593749998,10.16989453125,0.0,0.0,0.0,0.2787242061893876,359.9590114482243,343.36882579565463
2026-09-29 20:27:33.174786816,0.08379150390625,-0.17237109374999998,10.1746826171875,0.0,0.0,0.0010652644360316954,0.2764201620221998,359.9582196355366,343.3694686179319
2026-09-29 20:27:33.190418176,0.10294384765624999,-0.14124853515625,10.167500488281249,0.0,0.0,0.0021305288720633907,0.2742645900847181,359.95724283092545,343.37041658812706
2026-09-29 20:27:33.252918528,0.11730810546874999,-0.13406640625,10.189046874999999,0.0,-0.0010652644360316954,0.0010652644360316954,0.272114807168199,359.955526764236,343.3710564661798
2026-09-29 20:27:33.252918528,0.06942724609374999,-0.1292783203125,10.167500488281249,-0.0010652644360316954,0.0,0.0021305288720633907,0.26962168135288095,359.95456719673206,343.3723094696793
2026-09-29 20:27:33.252918528,0.1149140625,-0.11252001953124999,10.244109863281249,0.0,-0.0010652644360316954,0.0010652644360316954,0.26732076068137456,359.9534260895921,343.37295072131286
2026-09-29 20:27:33.268543488,0.07900341796874999,-0.12688427734375,10.201017089843749,0.0,0.0,0.0,0.26588306474993295,359.95242106254517,343.37359352334477
2026-09-29 20:27:33.273252608,0.10533789062499999,-0.1484306640625,10.222563476562499,0.0,0.0,0.0,0.263615926191328,359.9516319809078,343.37362592951354
2026-09-29 20:27:33.273252608,0.08379150390625,-0.13406640625,10.21059326171875,0.0,0.0,0.0010652644360316954,0.2615382661832994,359.9502855226004,343.3742673812444
2026-09-29 20:27:33.284392704,0.0909736328125,-0.162794921875,10.162712402343749,0.0,0.0,0.0010652644360316954,0.25958523423167595,359.9486625338108,343.374907473613
2026-09-29 20:27:33.284392704,0.11730810546874999,-0.13646044921875,10.21538134765625,0.0,-0.0010652644360316954,0.0,0.2572914411960636,359.94782610291895,343.3752454579251
2026-09-29 20:27:33.300066560,0.10533789062499999,-0.15561279296875,10.22016943359375,0.0,0.0,0.0021305288720633907,0.25547681374190745,359.9465774386046,343.37649760589665
2026-09-29 20:27:33.300066560,0.09815576171875,-0.12209619140624998,10.160318359375,0.0,0.0,0.0021305288720633907,0.25344136587539906,359.9463531035944,343.37744846886574
2026-09-29 20:27:33.300066560,0.08379150390625,-0.1484306640625,10.222563476562499,0.0,0.0,0.0010652644360316954,0.25159703175626075,359.9449100416634,343.3780886166784
2026-09-29 20:27:33.300066560,0.09336767578124999,-0.14603662109374999,10.205805175781249,0.0,0.0,0.0010652644360316954,0.24910524169703194,359.9437356777341,343.37873045839814
2026-09-29 20:27:33.315654912,0.12688427734375,-0.15800683593749998,10.1363779296875,-0.0010652644360316954,0.0,0.0021305288720633907,0.24656499849914396,359.9425636499065,343.3793721692476
2026-09-29 20:27:33.331398656,0.124490234375,-0.12688427734375,10.201017089843749,-0.0010652644360316954,0.0,0.0010652644360316954,0.24411015464178762,359.9416048595278,343.38032063638303
2026-09-29 20:27:33.362646272,0.07900341796874999,-0.15321875,10.205805175781249,0.0,0.0010652644360316954,0.0,0.2428655884209877,359.941087519337,343.38096635126783
2026-09-29 20:27:33.393896704,0.09815576171875,-0.12209619140624998,10.133983886718749,0.0,0.0,0.0021305288720633907,0.2411346987628758,359.94011729217334,343.381913492564
2026-09-29 20:27:33.393896704,0.10533789062499999,-0.11730810546874999,10.201017089843749,0.0,0.0,0.0021305288720633907,0.23987025754129135,359.9390685649471,343.3831657416262
2026-09-29 20:27:33.393896704,0.07182128906249999,-0.16040087890625,10.21059326171875,0.0,0.0,0.0021305288720633907,0.23844792775370383,359.9382611608791,343.38441910085345
2026-09-29 20:27:33.399379200,0.10773193359375,-0.13406640625,10.157924316406248,0.0,0.0,0.0021305288720633907,0.23627382219390428,359.9377464241007,343.3856728648972
2026-09-29 20:27:33.399379200,0.08379150390625,-0.124490234375,10.150742187499999,0.0,0.0,0.0021305288720633907,0.23451532272217376,359.93663845241906,343.38662142960766
2026-09-29 20:27:33.399379200,0.1005498046875,-0.14603662109374999,10.1938349609375,0.0,0.0010652644360316954,0.0,0.23277539823005597,359.93574656251604,343.3869592575034
2026-09-29 20:27:33.399379200,0.10773193359375,-0.13646044921875,10.18665283203125,0.0,-0.0021305288720633907,0.0010652644360316954,0.2304267640829263,359.9341646540112,343.3879053254517
2026-09-29 20:27:33.425847296,0.06942724609374999,-0.13646044921875,10.19144091796875,0.0,0.0,0.0010652644360316954,0.2283342403424039,359.9331590912368,343.38824339959626
2026-09-29 20:27:33.425847296,0.076609375,-0.12209619140624998,10.21538134765625,0.0,0.0,0.0010652644360316954,0.2266971762320805,359.93231274735393,343.38888674490124
2026-09-29 20:27:33.441508608,0.10773193359375,-0.13885449218749998,10.157924316406248,0.0010652644360316954,0.0,0.0010652644360316954,0.2252609755443759,359.9315336743514,343.3898355137039
2026-09-29 20:27:33.441508608,0.09336767578124999,-0.14603662109374999,10.138771972656249,0.0,0.0,0.0021305288720633907,0.22296684425332777,359.9303305135617,343.3910882254516
2026-09-29 20:27:33.457433600,0.09576171874999999,-0.11730810546874999,10.217775390624999,0.0010652644360316954,0.0,0.0,0.22164845215169532,359.9296505216476,343.39112146596955
2026-09-29 20:27:33.457433600,0.0813974609375,-0.11730810546874999,10.20819921875,0.0,0.0,0.0010652644360316954,0.22007678636801933,359.9291428641536,343.3917660639032
2026-09-29 20:27:33.473058560,0.14124853515625,-0.12688427734375,10.172288574218749,0.0,0.0,0.0,0.2181915192386705,359.92849241706193,343.3917994616745
2026-09-29 20:27:33.488682752,0.1149140625,-0.13646044921875,10.212987304687498,0.0010652644360316954,0.0010652644360316954,0.0,0.21683432678481648,359.92749592976884,343.3917189951745
2026-09-29 20:27:33.504308736,0.0813974609375,-0.1675830078125,10.2034111328125,0.0,0.0,-0.0010652644360316954,0.21216690440401562,359.92582542118066,343.39155820053435
2026-09-29 20:27:33.551182592,0.11012597656249999,-0.13646044921875,10.2417158203125,0.0,0.0,0.0,0.21040986626587674,359.9245151733491,343.3914757397763
2026-09-29 20:27:33.582432256,0.13646044921875,-0.1292783203125,10.21538134765625,0.0,-0.0010652644360316954,0.0,0.20812449419512835,359.9233672384273,343.3913944390175
2026-09-29 20:27:33.598057984,0.1149140625,-0.16997705078124997,10.184258789062499,0.0,0.0,-0.0010652644360316954,0.20628309930176406,359.9222364104947,343.3910088814569
2026-09-29 20:27:33.613682688,0.10533789062499999,-0.15561279296875,10.2321396484375,0.0010652644360316954,0.0,0.0,0.20473889997622075,359.92125100441484,343.39092779053766
2026-09-29 20:27:33.635905280,0.0813974609375,-0.1484306640625,10.217775390624999,0.0,-0.0010652644360316954,0.0,0.2023988498501163,359.92018879637504,343.3908465900439
2026-09-29 20:27:33.635905280,0.07421533203125,-0.1292783203125,10.236927734375,0.0,0.0,0.0,0.19977130752295197,359.9196331570086,343.39076750250797
2026-09-29 20:27:33.636922880,0.11012597656249999,-0.13406640625,10.229745605468748,0.0,-0.0010652644360316954,0.0,0.1973734512351138,359.91863912508217,343.39099133936674
2026-09-29 20:27:33.636922880,0.08379150390625,-0.14603662109374999,10.179470703124998,0.0,0.0,-0.0010652644360316954,0.19547292267558478,359.9175579190449,343.3902998723293
2026-09-29 20:27:33.637937920,0.124490234375,-0.11730810546874999,10.2417158203125,0.0,0.0010652644360316954,0.0010652644360316954,0.19425097909434252,359.91696530811606,343.3908310647987
2026-09-29 20:27:33.637937920,0.067033203125,-0.11252001953124999,10.17707666015625,0.0,0.0,0.0,0.19258007806278893,359.9161099679076,343.3910556974417
2026-09-29 20:27:33.655026688,0.1005498046875,-0.15082470703124998,10.201017089843749,0.0,0.0,0.0,0.19050299461548104,359.91538898649014,343.3909753421222
2026-09-29 20:27:33.655026688,0.0909736328125,-0.16997705078124997,10.18186474609375,0.0,0.0010652644360316954,0.0,0.18816455292486448,359.9149330595963,343.3915068285769
2026-09-29 20:27:33.676162304,0.11012597656249999,-0.15082470703124998,10.15313623046875,0.0,0.0,0.0,0.18588572962431624,359.91429372499505,343.3914271688897
2026-09-29 20:27:33.676162304,0.10773193359375,-0.11252001953124999,10.14356005859375,0.0,0.0,-0.0010652644360316954,0.1832671064720758,359.91357709510595,343.39104208419076
2026-09-29 20:27:33.676162304,0.11730810546874999,-0.11970214843749999,10.2034111328125,0.0,0.0,0.0,0.18140705107034427,359.9127003006342,343.3915724224352
2026-09-29 20:27:33.676162304,0.1292783203125,-0.14124853515625,10.17707666015625,-0.0010652644360316954,0.0,0.0,0.17859674612439325,359.9113912881213,343.39118636869443
2026-09-29 20:27:33.691989248,0.0622451171875,-0.13885449218749998,10.145954101562499,0.0,-0.0010652644360316954,0.0,0.17653341899834846,359.91038703352166,343.3914103567815
2026-09-29 20:27:33.691989248,0.10294384765624999,-0.17715917968749997,10.2417158203125,0.0,0.0,0.0,0.17458154979206894,359.9095560888193,343.39163464711373
2026-09-29 20:27:33.691989248,0.09336767578124999,-0.1484306640625,10.1651064453125,0.0,0.0,-0.0010652644360316954,0.1732158341825464,359.9091138702211,343.39155580917793
2026-09-29 20:27:33.707652096,0.06942724609374999,-0.13406640625,10.201017089843749,0.0,0.0,0.0,0.17130946462347113,359.9084322636861,343.3917810867138
2026-09-29 20:27:33.723245056,0.13167236328124998,-0.15082470703124998,10.22495751953125,0.0,0.0,-0.0010652644360316954,0.16939371854772262,359.9081117559029,343.39139695277805
2026-09-29 20:27:33.738893312,0.11970214843749999,-0.124490234375,10.157924316406248,0.0,-0.0010652644360316954,0.0,0.1678131751807675,359.9071285716361,343.39131697412085
2026-09-29 20:27:33.738893312,0.11252001953124999,-0.1292783203125,10.275232421875,0.0,0.0,0.0,0.16585115981386034,359.9060139109747,343.39154190043644
2026-09-29 20:27:33.754613504,0.124490234375,-0.15321875,10.2417158203125,0.0,0.0,0.0,0.16359971070018925,359.90532818779985,343.3914631313628
2026-09-29 20:27:33.770122240,0.11252001953124999,-0.13406640625,10.2034111328125,0.0,0.0010652644360316954,0.0,0.1615133429765163,359.9046294566466,343.39138332705284
2026-09-29 20:27:33.788940288,0.11252001953124999,-0.11970214843749999,10.20819921875,0.0,0.0,0.0,0.16030560471940988,359.90365251290194,343.39160860566994
2026-09-29 20:27:33.788940288,0.07900341796874999,-0.1484306640625,10.198623046875,0.0,0.0,-0.0010652644360316954,0.15800099136231777,359.9031691844887,343.3912241734071
2026-09-29 20:27:33.788940288,0.10773193359375,-0.14603662109374999,10.2034111328125,0.0,0.0,0.0,0.15576762802076338,359.90308510247485,343.390534946005
2026-09-29 20:27:33.788940288,0.09815576171875,-0.124490234375,10.229745605468748,0.0,-0.0010652644360316954,0.0,0.15369612004450983,359.9021767553339,343.3907593422384
2026-09-29 20:27:33.817178368,0.067033203125,-0.09336767578124999,10.234533691406249,0.0,0.0,0.0,0.15194652083421706,359.9008452318948,343.3912881525449
2026-09-29 20:27:33.832804096,0.08379150390625,-0.1292783203125,10.1651064453125,0.0010652644360316954,0.0,0.0,0.15082306537505488,359.9003777708923,343.39181801410314
2026-09-29 20:27:33.848427776,0.05266894531249999,-0.14364257812499998,10.2704443359375,0.0,0.0,0.0,0.1495967580090913,359.8998856377956,343.39204349047986
2026-09-29 20:27:33.848427776,0.10533789062499999,-0.13646044921875,10.22016943359375,0.0,0.0,0.0,0.14772325050267995,359.89956774138005,343.3919637056723
2026-09-29 20:27:33.879678720,0.11252001953124999,-0.12688427734375,10.2321396484375,0.0,0.0010652644360316954,0.0,0.1462908463029624,359.8991309545799,343.392189698227
2026-09-29 20:27:33.879678720,0.06942724609374999,-0.13646044921875,10.184258789062499,0.0,0.0,0.0,0.1445031810023971,359.89793966537275,343.39241417325616
2026-09-29 20:27:33.879678720,0.07182128906249999,-0.11970214843749999,10.234533691406249,0.0,0.0,0.0,0.14242832951479684,359.89759874751945,343.3923350388998
2026-09-29 20:27:33.879678720,0.07182128906249999,-0.13885449218749998,10.16989453125,0.0,-0.0010652644360316954,0.0,0.140753792930776,359.8968080540061,343.3922542331728
2026-09-29 20:27:33.879678720,0.0813974609375,-0.17237109374999998,10.19144091796875,0.0,0.0,0.0,0.13860605142231358,359.8959762097514,343.3930898900027
2026-09-29 20:27:33.895307008,0.08857958984374999,-0.1292783203125,10.227351562499999,0.0,0.0,0.0,0.13638474559142946,359.8954933464412,343.3930109843817
2026-09-29 20:27:33.910959104,0.11730810546874999,-0.13885449218749998,10.189046874999999,0.0,0.0,0.0,0.13462917465125435,359.89444277152535,343.39293039643
2026-09-29 20:27:33.942179584,0.11012597656249999,-0.12209619140624998,10.18665283203125,0.0,0.0,0.0,0.13248021593044,359.8936593072411,343.3928507443624
2026-09-29 20:27:33.942179584,0.10294384765624999,-0.13406640625,10.15313623046875,0.0,0.0,0.0,0.13064061297359625,359.8930758651106,343.3927717689179
2026-09-29 20:27:33.943688704,0.10533789062499999,-0.15800683593749998,10.14834814453125,0.0,0.0,-0.0010652644360316954,0.1288455019191304,359.8929709614444,343.39238835942666
2026-09-29 20:27:33.963312384,0.08618554687499999,-0.1675830078125,10.167500488281249,0.0,0.0,-0.0010652644360316954,0.12637891044827165,359.8926281265698,343.39169973589753
2026-09-29 20:27:33.974363904,0.08379150390625,-0.13885449218749998,10.155530273437499,0.0,0.0,0.0,0.12456615091117118,359.8919406929648,343.39131487355337
2026-09-29 20:27:33.974363904,0.11252001953124999,-0.13167236328124998,10.21059326171875,0.0,0.0010652644360316954,0.0,0.12311407568065975,359.8915323136132,343.3912357404496
2026-09-29 20:27:33.989998848,0.10773193359375,-0.124490234375,10.22016943359375,0.0,-0.0010652644360316954,0.0,0.12138518313496546,359.89011803166625,343.39115474143125
2026-09-29 20:27:33.989998848,0.17955322265624998,-0.13646044921875,10.18186474609375,0.0,0.0,0.0,0.11968664550405204,359.889223604914,343.39107478264503
2026-09-29 20:27:34.005622016,0.0909736328125,-0.15082470703124998,10.1746826171875,0.0010652644360316954,0.0,0.0,0.11828478920707343,359.8879325493457,343.3909943761666
2026-09-29 20:27:34.083744512,0.07900341796874999,-0.1484306640625,10.2321396484375,0.0,0.0,0.0,0.1161277281112506,359.8871991987527,343.39152465973916
2026-09-29 20:27:34.083744512,0.1005498046875,-0.13885449218749998,10.102861328125,0.0,0.0010652644360316954,0.0,0.11451861945148087,359.88705225713096,343.3917510747595
2026-09-29 20:27:34.083744512,0.06942724609374999,-0.124490234375,10.1938349609375,0.0,0.0,0.0,0.11291477916996948,359.88629359654976,343.3919768990559
2026-09-29 20:27:34.083744512,0.09336767578124999,-0.15561279296875,10.162712402343749,0.0,0.0,-0.0010652644360316954,0.11133997331933358,359.88541910616885,343.39159116251216
2026-09-29 20:27:34.099370240,0.09336767578124999,-0.15321875,10.222563476562499,0.0,0.0,0.0,0.10986183412948157,359.8845848897762,343.3915110355657
2026-09-29 20:27:34.099370240,0.06942724609374999,-0.13406640625,10.21538134765625,0.0,-0.0010652644360316954,0.0,0.10768279869793572,359.88359543840335,343.3911260336363
2026-09-29 20:27:34.099370240,0.09576171874999999,-0.1675830078125,10.24889794921875,0.0,0.0,0.0,0.10567939527048165,359.88287296173115,343.3910465687576
2026-09-29 20:27:34.099370240,0.11252001953124999,-0.17476513671875,10.198623046875,0.0,0.0,0.0,0.1038003159902055,359.8821787665182,343.39096787172406
2026-09-29 20:27:34.099370240,0.10294384765624999,-0.15561279296875,10.22495751953125,0.0,-0.0010652644360316954,0.0,0.1015942037374593,359.88115394498755,343.39058303939277
2026-09-29 20:27:34.099370240,0.0909736328125,-0.14603662109374999,10.2034111328125,0.0,0.0,0.0,0.09949640791899349,359.8806212987309,343.39080873382864
2026-09-29 20:27:34.099370240,0.08857958984374999,-0.10294384765624999,10.246503906249998,0.0,0.0010652644360316954,0.0,0.09782845156021847,359.8803279548192,343.3907294929505
2026-09-29 20:27:34.114994688,0.07421533203125,-0.14364257812499998,10.222563476562499,0.0010652644360316954,0.0010652644360316954,0.0,0.09702421305325622,359.8800481963918,343.3909549197281
2026-09-29 20:27:34.146246144,0.11252001953124999,-0.13885449218749998,10.251291992187499,-0.0010652644360316954,-0.0010652644360316954,0.0,0.09485637948501392,359.8792655773146,343.3908750430006
2026-09-29 20:27:34.146246144,0.10773193359375,-0.11252001953124999,10.1746826171875,0.0,-0.0021305288720633907,0.0010652644360316954,0.09312796622276642,359.8778595951765,343.39201516799943
2026-09-29 20:27:34.146246144,0.10533789062499999,-0.162794921875,10.22016943359375,0.0,0.0,0.0,0.09087437714762142,359.8768282160397,343.39254544036123
2026-09-29 20:27:34.163030784,0.08618554687499999,-0.13167236328124998,10.246503906249998,0.0,0.0,0.0,0.08895758863630976,359.875746977516,343.39277115282675
2026-09-29 20:27:34.163030784,0.07182128906249999,-0.13167236328124998,10.19144091796875,0.0,0.0,0.0,0.08704262695576512,359.87489307598594,343.39330146464033
2026-09-29 20:27:34.193193472,0.07421533203125,-0.14364257812499998,10.21059326171875,0.0,0.0,-0.0010652644360316954,0.0851601100449317,359.87442593574303,343.3929165428828
2026-09-29 20:27:34.208794112,0.067033203125,-0.162794921875,10.17707666015625,0.0,0.0,0.0,0.08361346418005217,359.8732822136308,343.39283649017557
2026-09-29 20:27:34.208794112,0.08379150390625,-0.11970214843749999,10.22016943359375,0.0,0.0,0.0,0.0817636656898023,359.87200762647126,343.3933668556337
2026-09-29 20:27:34.224417024,0.14124853515625,-0.13406640625,10.21538134765625,0.0,0.0,0.0,0.08076586351559849,359.8714537186366,343.3932872409224
2026-09-29 20:27:34.241904384,0.10533789062499999,-0.11970214843749999,10.196229003906248,0.0,-0.0010652644360316954,0.0,0.07898789712786146,359.8703172228675,343.39320690535203
2026-09-29 20:27:34.271540992,0.1005498046875,-0.16518896484374998,10.196229003906248,0.0,0.0,0.0,0.0775452731178361,359.8699653263257,343.3931280380953
2026-09-29 20:27:34.271540992,0.1005498046875,-0.12688427734375,10.17707666015625,-0.0010652644360316954,0.0,0.0,0.0751903430982947,359.8693609546184,343.39335391656334
2026-09-29 20:27:34.302914048,0.09815576171875,-0.13406640625,10.236927734375,0.0,0.0,-0.0010652644360316954,0.07309361975028901,359.8688378114519,343.3929697503666
2026-09-29 20:27:34.305029632,0.09336767578124999,-0.10773193359375,10.179470703124998,0.0,0.0010652644360316954,0.0,0.07163614562333757,359.8685159881458,343.39289094026867
2026-09-29 20:27:34.305029632,0.11730810546874999,-0.15321875,10.160318359375,0.0,0.0,0.0,0.07043282195255031,359.8676887297542,343.3931159101528
2026-09-29 20:27:34.305029632,0.13167236328124998,-0.15321875,10.198623046875,0.0,0.0,0.0,0.06891439825874282,359.8668773968003,343.3933420431346
2026-09-29 20:27:34.305029632,0.11970214843749999,-0.13406640625,10.22495751953125,0.0,-0.0010652644360316954,0.0,0.0670542752725967,359.86556410418115,343.39326205388414
2026-09-29 20:27:34.305029632,0.13646044921875,-0.13646044921875,10.179470703124998,0.0,0.0,0.0,0.06543557747703177,359.8643860087334,343.3934874371777
2026-09-29 20:27:34.305029632,0.09336767578124999,-0.124490234375,10.162712402343749,0.0,-0.0010652644360316954,0.0,0.06339675737398241,359.86323667221353,343.39340796890104
2026-09-29 20:27:34.318807040,0.10773193359375,-0.14603662109374999,10.26565625,0.0,0.0010652644360316954,0.0,0.062235424399804416,359.8629370268326,343.39393889019425
2026-09-29 20:27:34.334438656,0.10533789062499999,-0.11730810546874999,10.21059326171875,0.0,-0.0010652644360316954,-0.0010652644360316954,0.06093156150562868,359.8612877467356,343.3938586112156
2026-09-29 20:27:34.365689600,0.1005498046875,-0.1484306640625,10.11483154296875,0.0,0.0,-0.0010652644360316954,0.059512061399360786,359.8605953834845,343.3934736237816
2026-09-29 20:27:34.366754304,0.14124853515625,-0.15561279296875,10.1746826171875,0.0,0.0,-0.0010652644360316954,0.057181427438894476,359.86060578212573,343.3930902128686
2026-09-29 20:27:34.381760512,0.11012597656249999,-0.11252001953124999,10.15313623046875,0.0,0.0,0.0,0.055198587039190734,359.8598621456224,343.39301117324476
2026-09-29 20:27:34.397392896,0.06942724609374999,-0.1292783203125,10.16989453125,0.0,-0.0010652644360316954,-0.0010652644360316954,0.05326137521752456,359.85845514439853,343.3923211068162
2026-09-29 20:27:34.397392896,0.11970214843749999,-0.1484306640625,10.217775390624999,0.0,0.0,0.0,0.05200247740688621,359.85775341165373,343.39224141490695
2026-09-29 20:27:34.413016832,0.0909736328125,-0.14603662109374999,10.212987304687498,0.0,-0.0010652644360316954,0.0,0.04988406974502728,359.8567895792651,343.3921623643006
2026-09-29 20:27:34.413016832,0.08857958984374999,-0.13885449218749998,10.184258789062499,0.0,0.0,-0.0010652644360316954,0.048499777555315204,359.8558679289841,343.39177794545344
2026-09-29 20:27:34.413016832,0.13167236328124998,-0.11730810546874999,10.198623046875,0.0,0.0,0.0,0.04725078539576984,359.8548018653355,343.39139316621083
2026-09-29 20:27:34.413016832,0.10533789062499999,-0.13167236328124998,10.217775390624999,0.0,0.0,0.0,0.04642645872869327,359.85400331936194,343.3916187679954
2026-09-29 20:27:34.413016832,0.12688427734375,-0.11730810546874999,10.21059326171875,0.0,0.0,0.0,0.04491430336009918,359.8537763055052,343.391844991518
2026-09-29 20:27:34.445966080,0.11252001953124999,-0.15561279296875,10.22495751953125,0.0,-0.0010652644360316954,0.0,0.04337878044352659,359.85254113290125,343.39207035207386
2026-09-29 20:27:34.445966080,0.1149140625,-0.15321875,10.2034111328125,0.0,0.0,0.0,0.04200608236420209,359.85174582680725,343.3922962853641
2026-09-29 20:27:34.476118016,0.09815576171875,-0.16518896484374998,10.2417158203125,0.0,-0.0010652644360316954,0.0,0.03997223952869683,359.85054056436024,343.39282739111474
2026-09-29 20:27:34.476118016,0.09576171874999999,-0.15321875,10.18665283203125,0.0,-0.0010652644360316954,0.0,0.03830062035124508,359.8494456072121,343.3930533161831
2026-09-29 20:27:34.491742208,0.08618554687499999,-0.124490234375,10.16989453125,0.0,0.0010652644360316954,0.0,0.036075974157112486,359.849849768316,343.39328001522415
2026-09-29 20:27:34.491742208,0.05027490234375,-0.13646044921875,10.150742187499999,0.0,0.0,0.0,0.03450531604731377,359.8490059731731,343.3935057341815
2026-09-29 20:27:34.522993920,0.124490234375,-0.13406640625,10.20819921875,0.0,0.0010652644360316954,0.0,0.03354845818868048,359.8493961064203,343.3934268783068
2026-09-29 20:27:34.522993920,0.06942724609374999,-0.1484306640625,10.212987304687498,0.0,0.0,0.0,0.03157156170134275,359.8487663297249,343.3936531585888
2026-09-29 20:27:34.522993920,0.10294384765624999,-0.12688427734375,10.21059326171875,0.0,0.0,0.0,0.029997342746703654,359.8474753258763,343.3935736044423
2026-09-29 20:27:34.522993920,0.11012597656249999,-0.14124853515625,10.189046874999999,0.0,0.0,0.0,0.028425797589341027,359.84621404547187,343.3934941049609
2026-09-29 20:27:34.522993920,0.11012597656249999,-0.12209619140624998,10.189046874999999,0.0,0.0,0.0010652644360316954,0.02706750614250569,359.84551070823005,343.3943306639678
2026-09-29 20:27:34.539200512,0.1005498046875,-0.15082470703124998,10.222563476562499,0.0,0.0,0.0,0.02593830645789858,359.84492906374385,343.3945564074944
2026-09-29 20:27:34.578558720,0.076609375,-0.11252001953124999,10.172288574218749,0.0,0.0,0.0,0.024386386488886476,359.84451998660103,343.39508761914436
2026-09-29 20:27:34.602103552,0.0622451171875,-0.14364257812499998,10.20819921875,0.0,-0.0010652644360316954,0.0,0.022730843874223063,359.8435808097128,343.39561824180424
2026-09-29 20:27:34.602103552,0.09336767578124999,-0.15321875,10.17707666015625,0.0,0.0,0.0,0.020828698673461588,359.8430284344185,343.39553914495684
2026-09-29 20:27:34.602103552,0.13406640625,-0.14124853515625,10.2034111328125,0.0,-0.0010652644360316954,0.0,0.019447643733195262,359.84187996198784,343.39546018171416
2026-09-29 20:27:34.617727744,0.10773193359375,-0.17476513671875,10.1938349609375,0.0,-0.0010652644360316954,0.0,0.01740647154740398,359.84052202266014,343.39538136177464
2026-09-29 20:27:34.617727744,0.076609375,-0.15082470703124998,10.189046874999999,0.0,0.0,-0.0010652644360316954,0.015568828948985144,359.8391935648584,343.3953030477731
2026-09-29 20:27:34.648977920,0.11970214843749999,-0.16518896484374998,10.239321777343749,0.0,-0.0010652644360316954,0.0,0.013827401763029757,359.8380402495404,343.394918383401
2026-09-29 20:27:34.648977920,0.07900341796874999,-0.15082470703124998,10.18665283203125,0.0,0.0,0.0,0.012500105956096262,359.83697057502917,343.3948394825089
2026-09-29 20:27:34.648977920,0.14124853515625,-0.1292783203125,10.18186474609375,0.0,0.0,0.0,0.011016624190149751,359.8366297281122,343.3947611598378
2026-09-29 20:27:34.648977920,0.0813974609375,-0.124490234375,10.138771972656249,0.0,0.0010652644360316954,0.0,0.00977419950171206,359.8362910539532,343.39468229058394
2026-09-29 20:27:34.648977920,0.09815576171875,-0.1292783203125,10.198623046875,0.0,0.0,-0.0010652644360316954,0.009104585144399099,359.83565974130084,343.3942973919944
2026-09-29 20:27:34.664605184,0.1005498046875,-0.14603662109374999,10.189046874999999,0.0,-0.0021305288720633907,0.0,0.007240753946881217,359.8344204947671,343.3948287583459
2026-09-29 20:27:34.695883520,0.0813974609375,-0.13885449218749998,10.160318359375,0.0,0.0,-0.0010652644360316954,0.005674202128707302,359.8334486652521,343.39474989124017
2026-09-29 20:27:34.711514880,0.08618554687499999,-0.14603662109374999,10.22016943359375,0.0,0.0,0.0,0.004085378328266114,359.83315429235955,343.39436591855235
2026-09-29 20:27:34.711514880,0.10773193359375,-0.18434130859374998,10.145954101562499,0.0,0.0,0.0,0.0021935796488875563,359.83262345150627,343.3942870237079
2026-09-29 20:27:34.711514880,0.0813974609375,-0.12688427734375,10.184258789062499,0.0,-0.0010652644360316954,-0.0010652644360316954,9.490303652689527e-05,359.83096581763107,343.393903734675
2026-09-29 20:27:34.742766848,0.124490234375,-0.12688427734375,10.155530273437499,0.0,-0.0010652644360316954,-0.0010652644360316954,359.99822488792915,359.8301993969882,343.39351979344644
2026-09-29 20:27:34.758391552,0.124490234375,-0.16997705078124997,10.2034111328125,0.0,0.0,-0.0010652644360316954,359.99708702635854,359.8292891346134,343.39344073686823
2026-09-29 20:27:34.774016512,0.11252001953124999,-0.14603662109374999,10.196229003906248,0.0,-0.0010652644360316954,0.0,359.99514108188276,359.8281956292609,343.39397266507194
2026-09-29 20:27:34.774016512,0.10533789062499999,-0.1484306640625,10.172288574218749,0.0,0.0,0.0,359.9935446490764,359.82683867490215,343.3941992721179
2026-09-29 20:27:34.774016512,0.1149140625,-0.15082470703124998,10.18186474609375,0.0,0.0,0.0,359.9922440267897,359.82614722364934,343.3941206549526
2026-09-29 20:27:34.774016512,0.10773193359375,-0.15082470703124998,10.196229003906248,0.0,0.0,0.0,359.99093262223494,359.82517787916765,343.3940421512631
2026-09-29 20:27:34.789640192,0.11970214843749999,-0.1292783203125,10.18665283203125,0.0,0.0,0.0,359.9896504799186,359.8236946807391,343.39396375919154
2026-09-29 20:27:34.789640192,0.12209619140624998,-0.16997705078124997,10.21538134765625,0.0,0.0010652644360316954,0.0,359.9886088739858,359.82344698005227,343.3938843060591
2026-09-29 20:27:34.820890112,0.0909736328125,-0.11730810546874999,10.19144091796875,0.0,0.0,0.0,359.9867490229784,359.8225511752661,343.3935014831495
2026-09-29 20:27:34.852140800,0.1005498046875,-0.11012597656249999,10.129195800781249,0.0,0.0,0.0,359.9857131363214,359.82189478711234,343.3934222229102
2026-09-29 20:27:34.867764992,0.06463916015625,-0.13167236328124998,10.217775390624999,0.0,0.0,0.0,359.98463946496906,359.8214906503697,343.39334315150643
2026-09-29 20:27:34.867764992,0.10773193359375,-0.1484306640625,10.19144091796875,0.0,0.0,0.0,359.98327644629876,359.82124747712936,343.3932639131519
2026-09-29 20:27:34.867764992,0.06942724609374999,-0.16040087890625,10.229745605468748,0.0,-0.0010652644360316954,0.0,359.98135845255695,359.82027587992695,343.39349080863974
2026-09-29 20:27:34.899014656,0.076609375,-0.13167236328124998,10.2417158203125,0.0,-0.0010652644360316954,0.0,359.9794595083841,359.81926594508474,343.39310746524933
2026-09-29 20:27:34.899014656,0.13406640625,-0.14124853515625,10.160318359375,0.0,-0.0010652644360316954,0.0,359.9777334199743,359.8182184127253,343.39363911671944
2026-09-29 20:27:34.899014656,0.035910644531249994,-0.162794921875,10.184258789062499,0.0,0.0,0.0,359.97597268762365,359.8173970228905,343.39356019859304
2026-09-29 20:27:34.914640896,0.10773193359375,-0.13885449218749998,10.172288574218749,0.0,0.0,0.0,359.974362051502,359.81700079635795,343.39348192303567
2026-09-29 20:27:34.914640896,0.13646044921875,-0.1484306640625,10.1938349609375,-0.0010652644360316954,-0.0010652644360316954,0.0,359.972302883152,359.81587721661145,343.39340319027133
2026-09-29 20:27:34.914640896,0.1149140625,-0.1484306640625,10.2417158203125,0.0,0.0,0.0,359.9703809654609,359.8149697406837,343.3933247944023
2026-09-29 20:27:34.914640896,0.11730810546874999,-0.13406640625,10.19144091796875,0.0,0.0,0.0,359.96867484974456,359.814011357473,343.39324598712045
2026-09-29 20:27:34.914640896,0.11730810546874999,-0.1484306640625,10.21538134765625,0.0,0.0,0.0,359.9673833390072,359.81290651307296,343.39316794650654
2026-09-29 20:27:34.914640896,0.1005498046875,-0.10773193359375,10.18665283203125,0.0,0.0,-0.0010652644360316954,359.9658436428781,359.81221675119974,343.39278431504516
2026-09-29 20:27:34.945891328,0.0909736328125,-0.13167236328124998,10.19144091796875,0.0,0.0,0.0010652644360316954,359.9651380355022,359.8110760856277,343.39331582660054
2026-09-29 20:27:34.977139200,0.04069873046875,-0.1675830078125,10.14834814453125,0.0,0.0,-0.0010652644360316954,359.9637875552462,359.81073339157626,343.39293158613174
2026-09-29 20:27:34.992764416,0.124490234375,-0.09815576171875,10.196229003906248,0.0,0.0,0.0,359.96220052086346,359.8102855863174,343.39285328787423
2026-09-29 20:27:35.008389888,0.067033203125,-0.12209619140624998,10.2034111328125,0.0,-0.0010652644360316954,0.0,359.9608001226198,359.8092029816813,343.39307878494463
2026-09-29 20:27:35.024014592,0.09576171874999999,-0.13167236328124998,10.239321777343749,-0.0010652644360316954,-0.0010652644360316954,0.0,359.95888677068933,359.80809570388584,343.3930000289577
2026-09-29 20:27:35.024014592,0.08379150390625,-0.14603662109374999,10.18665283203125,0.0,0.0,0.0,359.95741372636746,359.80699158635326,343.39353234020314
2026-09-29 20:27:35.024014592,0.08379150390625,-0.10533789062499999,10.184258789062499,0.0010652644360316954,0.0,0.0,359.9567539084774,359.80641810248716,343.3934530231686
2026-09-29 20:27:35.024014592,0.11970214843749999,-0.12688427734375,10.234533691406249,0.0,0.0,0.0,359.9557911713807,359.80571328611956,343.39306879710955
2026-09-29 20:27:35.039640320,0.09576171874999999,-0.13885449218749998,10.24889794921875,0.0,0.0,0.0,359.9546707835813,359.80452080622763,343.39299068627986
2026-09-29 20:27:35.039640320,0.09336767578124999,-0.17237109374999998,10.21538134765625,0.0,0.0,0.0,359.9538565983009,359.80341053059834,343.39321771547804
2026-09-29 20:27:35.039640320,0.047880859374999994,-0.1292783203125,10.201017089843749,0.0,0.0,0.0,359.95218487237366,359.8030439895053,343.39283474844075
2026-09-29 20:27:35.039640320,0.10533789062499999,-0.14603662109374999,10.16989453125,0.0,0.0,0.0,359.9511367867492,359.80282398392353,343.3930610714068
2026-09-29 20:27:35.055265280,0.067033203125,-0.15321875,10.217775390624999,0.0,0.0,0.0,359.94969252706574,359.8023647553892,343.39328767098993
2026-09-29 20:27:35.070889216,0.11012597656249999,-0.1675830078125,10.20819921875,0.0,0.0,0.0,359.9478803827015,359.80227872254085,343.3935141609938
2026-09-29 20:27:35.086515200,0.07900341796874999,-0.15561279296875,10.1938349609375,0.0010652644360316954,0.0,0.0,359.9467355734159,359.8016099719191,343.3937419440623
2026-09-29 20:27:35.117791488,0.0813974609375,-0.13646044921875,10.205805175781249,0.0,-0.0010652644360316954,0.0,359.94511426364454,359.8006510284354,343.39427506684603
2026-09-29 20:27:35.117791488,0.1005498046875,-0.11252001953124999,10.244109863281249,0.0,0.0,0.0,359.9436170527534,359.8002366132655,343.3941967619184
2026-09-29 20:27:35.149183232,0.1149140625,-0.13406640625,10.184258789062499,0.0,0.0,0.0,359.94224126657303,359.80011592542934,343.3944228942421
2026-09-29 20:27:35.164809728,0.0909736328125,-0.13646044921875,10.20819921875,0.0,0.0,0.0,359.940815736255,359.7990787701264,343.3943447545277
2026-09-29 20:27:35.198330624,0.1292783203125,-0.15321875,10.229745605468748,0.0,-0.0010652644360316954,0.0,359.9391278331296,359.7982823364839,343.39426626675146
2026-09-29 20:27:35.198330624,0.067033203125,-0.13406640625,10.234533691406249,0.0,0.0,0.0,359.93765522469056,359.7976084541619,343.39418675247816
2026-09-29 20:27:35.198330624,0.0909736328125,-0.17955322265624998,10.18186474609375,0.0,0.0,-0.0010652644360316954,359.9366778694032,359.79731947836416,343.39380259101006
2026-09-29 20:27:35.198330624,0.1005498046875,-0.14603662109374999,10.20819921875,0.0,0.0,0.0,359.9347875937344,359.79638129552126,343.39341975191905
2026-09-29 20:27:35.227595264,0.11252001953124999,-0.1484306640625,10.25368603515625,0.0,0.0,0.0,359.93235733069884,359.7961479450402,343.3930359846494
2026-09-29 20:27:35.227595264,0.13406640625,-0.11252001953124999,10.260868164062499,0.0,-0.0010652644360316954,0.0,359.9310284699235,359.79515969528353,343.39356790898023
2026-09-29 20:27:35.227595264,0.09576171874999999,-0.13646044921875,10.184258789062499,0.0,-0.0010652644360316954,0.0,359.9297962282365,359.7938565582184,343.39379459179105
2026-09-29 20:27:35.243218176,0.1005498046875,-0.16518896484374998,10.21059326171875,0.0,0.0,0.0,359.92852870567503,359.7929250040259,343.3934107520127
2026-09-29 20:27:35.243218176,0.11012597656249999,-0.1675830078125,10.184258789062499,0.0,0.0,-0.0010652644360316954,359.92682736048283,359.792247212554,343.3930284647349
2026-09-29 20:27:35.243218176,0.10294384765624999,-0.15321875,10.20819921875,0.0,0.0,0.0,359.9247412819667,359.7915454863246,343.39356177882286
2026-09-29 20:27:35.243218176,0.11730810546874999,-0.14364257812499998,10.1938349609375,0.0,0.0,0.0,359.92277967982056,359.79104457622356,343.3937889309523
2026-09-29 20:27:35.274467584,0.08857958984374999,-0.13646044921875,10.229745605468748,0.0,0.0,-0.0010652644360316954,359.9216191750456,359.7905422298356,343.39340546201885
2026-09-29 20:27:35.274467584,0.076609375,-0.15561279296875,10.11961962890625,0.0,-0.0010652644360316954,0.0010652644360316954,359.9199535478883,359.7894588381243,343.39393804631715
2026-09-29 20:27:35.274467584,0.11012597656249999,-0.16040087890625,10.08610302734375,0.0,-0.0010652644360316954,0.0,359.9181316852165,359.78878601407797,343.3944708400052
2026-09-29 20:27:35.274467584,0.07421533203125,-0.13406640625,10.20819921875,0.0,0.0,0.0,359.9166462310933,359.7884729327662,343.39469746123643
2026-09-29 20:27:35.274467584,0.06942724609374999,-0.1484306640625,10.2034111328125,0.0,0.0,0.0,359.9154552333008,359.7885329623058,343.39492297183597
2026-09-29 20:27:35.274467584,0.13167236328124998,-0.14364257812499998,10.15313623046875,-0.0010652644360316954,0.0,0.0,359.91328583009283,359.78775759411127,343.39515070037726
2026-09-29 20:27:35.290092288,0.10294384765624999,-0.15800683593749998,10.21059326171875,0.0,0.0,0.0,359.91183662755424,359.78747398028963,343.39537704707885
2026-09-29 20:27:35.328253696,0.13406640625,-0.15561279296875,10.1651064453125,0.0,-0.0010652644360316954,0.0,359.91027409934406,359.78648941017497,343.39499460228194
2026-09-29 20:27:35.328253696,0.12688427734375,-0.1292783203125,10.157924316406248,0.0,0.0,-0.0010652644360316954,359.9083827258432,359.78549307710836,343.39461178177635
2026-09-29 20:27:35.352390400,0.07900341796874999,-0.124490234375,10.160318359375,0.0,0.0010652644360316954,0.0,359.906784826051,359.7855048433885,343.3945319602168
2026-09-29 20:27:35.383639552,0.1005498046875,-0.15082470703124998,10.205805175781249,-0.0010652644360316954,0.0,-0.0010652644360316954,359.9047936869638,359.7849475565086,343.3941483469418
2026-09-29 20:27:35.383639552,0.10294384765624999,-0.13167236328124998,10.155530273437499,0.0,0.0,0.0,359.9036013277954,359.78380774976483,343.394071285664
2026-09-29 20:27:35.383639552,0.05745703125,-0.13406640625,10.19144091796875,0.0,0.0,-0.0010652644360316954,359.90176333086123,359.7829601075434,343.39338367528575
2026-09-29 20:27:35.383639552,0.11012597656249999,-0.12688427734375,10.244109863281249,0.0,0.0,-0.0010652644360316954,359.90065730723103,359.78269794773723,343.39300009941957
2026-09-29 20:27:35.399264256,0.0909736328125,-0.162794921875,10.201017089843749,-0.0010652644360316954,0.0,0.0,359.899074407925,359.78206670199074,343.3929212123782
2026-09-29 20:27:35.414891008,0.0813974609375,-0.11730810546874999,10.2034111328125,0.0,0.0,0.0,359.8972306821388,359.781157847718,343.39284382616233
2026-09-29 20:27:35.414891008,0.11012597656249999,-0.15082470703124998,10.196229003906248,0.0,0.0,-0.0010652644360316954,359.896291628922,359.7804765843086,343.3927655735186
2026-09-29 20:27:35.414891008,0.059851074218749994,-0.12688427734375,10.2417158203125,0.0,-0.0010652644360316954,0.0,359.89493165864974,359.77963774782603,343.3923824271392
2026-09-29 20:27:35.414891008,0.06463916015625,-0.15561279296875,10.244109863281249,0.0,0.0,0.0,359.8934384551056,359.7790288404942,343.39291428721486
2026-09-29 20:27:35.414891008,0.0909736328125,-0.1292783203125,10.18186474609375,0.0,0.0,0.0,359.89193586229266,359.7787629008557,343.3931414826753
2026-09-29 20:27:35.477772032,0.124490234375,-0.17476513671875,10.160318359375,-0.0010652644360316954,0.0,0.0,359.88976027608663,359.7783639610716,343.3930625044029
2026-09-29 20:27:35.477772032,0.043092773437499995,-0.17476513671875,10.145954101562499,0.0,0.0,0.0,359.887921337887,359.7778339313218,343.39298463206586
2026-09-29 20:27:35.509021696,0.11012597656249999,-0.17476513671875,10.251291992187499,0.0,0.0,0.0,359.88603101136266,359.7779663370164,343.3932116096637
2026-09-29 20:27:35.524646912,0.10294384765624999,-0.13885449218749998,10.189046874999999,0.0,0.0,0.0,359.88457148304406,359.7774282256303,343.3934386330179
2026-09-29 20:27:35.524646912,0.09815576171875,-0.15321875,10.205805175781249,0.0,0.0,0.0,359.88304715669835,359.77676809760897,343.39335956531795
2026-09-29 20:27:35.524646912,0.11012597656249999,-0.13167236328124998,10.198623046875,0.0,0.0,0.0,359.8813523750104,359.7762944535297,343.3935864363525
2026-09-29 20:27:35.524646912,0.0909736328125,-0.13406640625,10.189046874999999,0.0,0.0,0.0,359.8802065158428,359.77535718461974,343.3932026636055
2026-09-29 20:27:35.540272128,0.0813974609375,-0.12209619140624998,10.18186474609375,0.0,0.0,0.0,359.8789823017515,359.7747002990568,343.39312438398895
2026-09-29 20:27:35.540272128,0.09576171874999999,-0.13167236328124998,10.201017089843749,0.0,0.0,0.0,359.8778664095887,359.7746934994508,343.39304434085386
2026-09-29 20:27:35.540272128,0.10294384765624999,-0.15800683593749998,10.21059326171875,0.0,0.0010652644360316954,0.0,359.8767932637334,359.77398585804775,343.3929659440188
2026-09-29 20:27:35.540272128,0.08618554687499999,-0.13885449218749998,10.205805175781249,0.0,0.0,-0.0010652644360316954,359.8760565655187,359.7733179633924,343.39227788768306
2026-09-29 20:27:35.540272128,0.11252001953124999,-0.15082470703124998,10.18665283203125,0.0,0.0,0.0,359.8748260408115,359.77279807692645,343.39250487532934
2026-09-29 20:27:35.555897344,0.0909736328125,-0.15321875,10.198623046875,0.0,0.0,0.0,359.87351924123305,359.77220148832555,343.392731536134
2026-09-29 20:27:35.555897344,0.11252001953124999,-0.13406640625,10.239321777343749,0.0,0.0010652644360316954,-0.0010652644360316954,359.87252244692127,359.77232024309774,343.392346387433
2026-09-29 20:27:35.587146752,0.0909736328125,-0.15321875,10.1746826171875,0.0,-0.0010652644360316954,0.0,359.87128482324715,359.77144611129785,343.39287861161847
2026-09-29 20:27:35.618396928,0.12688427734375,-0.11012597656249999,10.26565625,0.0,0.0,-0.0010652644360316954,359.87033162556787,359.7708493667032,343.39249484975994
2026-09-29 20:27:35.649646592,0.11252001953124999,-0.15321875,10.246503906249998,0.0,0.0,0.0,359.86911548801106,359.77028142916754,343.3921109122276
2026-09-29 20:27:35.680897024,0.09815576171875,-0.1484306640625,10.189046874999999,0.0,0.0,0.0,359.8677288918647,359.76967675012537,343.392032653519
2026-09-29 20:27:35.680897024,0.09815576171875,-0.11970214843749999,10.236927734375,0.0,0.0010652644360316954,0.0,359.8663447177241,359.7699466745791,343.39195299744983
2026-09-29 20:27:35.680897024,0.11970214843749999,-0.10533789062499999,10.172288574218749,0.0,-0.0010652644360316954,0.0,359.86528168902646,359.76919431122866,343.3915690726781
2026-09-29 20:27:35.680897024,0.13646044921875,-0.1292783203125,10.1363779296875,0.0,0.0,0.0,359.8645358413003,359.7680855548927,343.3917960801442
2026-09-29 20:27:35.680897024,0.1005498046875,-0.16040087890625,10.217775390624999,0.0,0.0,0.0,359.8632878347723,359.76735066443865,343.39202253094516
2026-09-29 20:27:35.680897024,0.1005498046875,-0.14364257812499998,10.167500488281249,0.0,0.0010652644360316954,0.0010652644360316954,359.8619765022399,359.76721646971816,343.39255377982784
2026-09-29 20:27:35.680897024,0.11970214843749999,-0.15082470703124998,10.196229003906248,0.0,0.0,0.0,359.8609197439589,359.7664855948369,343.3930866091056
2026-09-29 20:27:35.680897024,0.067033203125,-0.1149140625,10.189046874999999,0.0,0.0,-0.0021305288720633907,359.85986888733794,359.76585770381956,343.39239791128466
2026-09-29 20:27:35.696523008,0.10294384765624999,-0.13646044921875,10.201017089843749,0.0,0.0,0.0,359.8586458591019,359.7654055631366,343.3923197311265
2026-09-29 20:27:35.700676608,0.11730810546874999,-0.12209619140624998,10.184258789062499,0.0,0.0,0.0,359.85780832267346,359.76465079033864,343.3925465483234
2026-09-29 20:27:35.727895040,0.09815576171875,-0.11970214843749999,10.25847412109375,0.0,-0.0010652644360316954,0.0,359.8563860191897,359.76340573105085,343.39307920595854
2026-09-29 20:27:35.727895040,0.1149140625,-0.1484306640625,10.22016943359375,0.0,0.0,0.0,359.8556343101085,359.7626291526645,343.3930004686498
2026-09-29 20:27:35.743526656,0.10294384765624999,-0.13406640625,10.205805175781249,0.0,0.0,0.0,359.8546716984712,359.762210600501,343.39292180283337
2026-09-29 20:27:35.743526656,0.08857958984374999,-0.13885449218749998,10.18665283203125,0.0,0.0,0.0,359.8538945735017,359.7613684554672,343.39314971127
2026-09-29 20:27:35.774776320,0.09815576171875,-0.17955322265624998,10.244109863281249,0.0,0.0,0.0,359.8529726892775,359.7607811256792,343.39368213627995
2026-09-29 20:27:35.774776320,0.11730810546874999,-0.13167236328124998,10.155530273437499,0.0,0.0010652644360316954,0.0,359.8521606622281,359.76032545264684,343.39360431555735
2026-09-29 20:27:35.774776320,0.11252001953124999,-0.09815576171875,10.21538134765625,0.0,-0.0010652644360316954,0.0,359.85088535241414,359.75943266199664,343.3935265270926
2026-09-29 20:27:35.806031104,0.0813974609375,-0.13167236328124998,10.18665283203125,0.0,0.0010652644360316954,0.0,359.84997062662234,359.7598426066122,343.3934441593157
2026-09-29 20:27:35.806031104,0.1005498046875,-0.1292783203125,10.162712402343749,0.0,0.0,0.0,359.84893745630757,359.759559463817,343.393364662393
2026-09-29 20:27:35.806031104,0.10294384765624999,-0.12209619140624998,10.160318359375,0.0,0.0,0.0,359.84814507975966,359.75872276403976,343.39359158443875
2026-09-29 20:27:35.806031104,0.08618554687499999,-0.15561279296875,10.189046874999999,0.0010652644360316954,0.0021305288720633907,0.0,359.8473016174595,359.75911884252287,343.3935102736664
2026-09-29 20:27:35.853413888,0.12209619140624998,-0.1484306640625,10.1938349609375,0.0,0.0,0.0,359.8453737294633,359.75845414863585,343.3934327892687
2026-09-29 20:27:35.869047296,0.09815576171875,-0.162794921875,10.1938349609375,0.0,0.0,0.0,359.8435562799246,359.75755373378075,343.39335491613826
2026-09-29 20:27:35.869047296,0.10294384765624999,-0.12688427734375,10.18186474609375,0.0,0.0,0.0,359.8418977065769,359.7576089470841,343.3938861845613
2026-09-29 20:27:35.869047296,0.09336767578124999,-0.16997705078124997,10.19144091796875,0.0,0.0,-0.0010652644360316954,359.8405097832682,359.7575299620024,343.3938062135902
2026-09-29 20:27:35.900296192,0.10773193359375,-0.15321875,10.17707666015625,0.0,0.0,0.0,359.8387413270578,359.75721317232967,343.3937286187701
2026-09-29 20:27:35.900296192,0.09815576171875,-0.10533789062499999,10.22016943359375,0.0,-0.0010652644360316954,-0.0010652644360316954,359.837467886237,359.7559553632017,343.3933467555138
2026-09-29 20:27:35.900296192,0.09576171874999999,-0.15321875,10.22016943359375,0.0,-0.0010652644360316954,0.0,359.83638083037766,359.75528395152634,343.3932683831008
2026-09-29 20:27:35.931545600,0.09815576171875,-0.12688427734375,10.196229003906248,0.0,0.0,0.0,359.83501827022536,359.7549321256603,343.39319030511075
2026-09-29 20:27:35.931545600,0.10294384765624999,-0.15800683593749998,10.246503906249998,0.0,-0.0010652644360316954,-0.0010652644360316954,359.8337241715284,359.7543151589319,343.3931129399553
2026-09-29 20:27:35.931545600,0.08857958984374999,-0.12688427734375,10.1746826171875,0.0010652644360316954,0.0,0.0,359.8328571815568,359.75384778093246,343.39334065871856
2026-09-29 20:27:35.931545600,0.10294384765624999,-0.124490234375,10.22016943359375,0.0,0.0,0.0,359.83205938759494,359.75339178885713,343.3929564007729
2026-09-29 20:27:35.931545600,0.11970214843749999,-0.13646044921875,10.21538134765625,0.0,0.0,-0.0010652644360316954,359.8310245785771,359.7529111195506,343.392571774676
2026-09-29 20:27:35.931545600,0.08618554687499999,-0.13406640625,10.201017089843749,0.0,0.0,0.0,359.8296056129392,359.7521927615737,343.3924936203931
2026-09-29 20:27:35.947171840,0.11970214843749999,-0.11252001953124999,10.17707666015625,0.0,0.0,0.0,359.8284939777832,359.7517825388328,343.3927197330025
2026-09-29 20:27:35.978525696,0.09336767578124999,-0.19391748046875,10.256080078124999,0.0,0.0,0.0,359.8271060642303,359.75086767526795,343.39264145912574
2026-09-29 20:27:35.978525696,0.09815576171875,-0.14603662109374999,10.234533691406249,0.0,0.0,0.0,359.8252595118253,359.7511096728802,343.39256237388884
2026-09-29 20:27:35.994151424,0.10533789062499999,-0.12688427734375,10.21059326171875,0.0,-0.0010652644360316954,0.0,359.82386327499654,359.7505828828118,343.39309367111844
2026-09-29 20:27:36.025400832,0.09336767578124999,-0.15082470703124998,10.24889794921875,0.0,0.0,0.0,359.82271075103546,359.7500415715893,343.3930148275211
2026-09-29 20:27:36.056650496,0.09336767578124999,-0.13885449218749998,10.167500488281249,0.0,0.0,0.0,359.8212160181878,359.7501379798218,343.39293513200147
2026-09-29 20:27:36.056650496,0.11012597656249999,-0.13646044921875,10.263262207031248,0.0,0.0,0.0,359.8197609815607,359.74979827723956,343.3934666569687
2026-09-29 20:27:36.056650496,0.1005498046875,-0.09336767578124999,10.236927734375,0.0,0.0,0.0,359.81892046647897,359.7490108452282,343.39399916939243
2026-09-29 20:27:36.056650496,0.10773193359375,-0.13885449218749998,10.244109863281249,0.0,0.0,0.0,359.81805716042686,359.74757332693054,343.39392190316636
2026-09-29 20:27:36.056650496,0.08857958984374999,-0.13646044921875,10.2417158203125,0.0,0.0,0.0,359.8167314031644,359.74681411635066,343.39384470615175
2026-09-29 20:27:36.056650496,0.07900341796874999,-0.11730810546874999,10.217775390624999,0.0,0.0,0.0,359.8155399120519,359.74616067222684,343.3937668939273
2026-09-29 20:27:36.056650496,0.12209619140624998,-0.14603662109374999,10.172288574218749,0.0,0.0,0.0,359.8143938576131,359.7458548314289,343.39338290945244
2026-09-29 20:27:36.056650496,0.12688427734375,-0.12688427734375,10.2034111328125,0.0,0.0,0.0,359.8131252458252,359.74521725213145,343.3936098398847
2026-09-29 20:27:36.103527168,0.076609375,-0.1292783203125,10.236927734375,0.0,0.0,0.0,359.81203260194263,359.74443413521567,343.39353074370194
2026-09-29 20:27:36.134774272,0.076609375,-0.11970214843749999,10.244109863281249,0.0,0.0010652644360316954,0.0,359.8112750792229,359.7444224284866,343.3934504037731
2026-09-29 20:27:36.134774272,0.1149140625,-0.15800683593749998,10.2034111328125,0.0,0.0,0.0,359.81049046683194,359.7437373525952,343.3939827505402
2026-09-29 20:27:36.134774272,0.1292783203125,-0.1675830078125,10.212987304687498,0.0,0.0,0.0,359.8091629039564,359.7433310108319,343.3945151801207
2026-09-29 20:27:36.166024448,0.13167236328124998,-0.15800683593749998,10.236927734375,0.0,0.0,0.0,359.8076533833613,359.7425933710968,343.39474180283975
2026-09-29 20:27:36.166024448,0.11252001953124999,-0.16518896484374998,10.18665283203125,0.0,0.0,-0.0010652644360316954,359.8065220488341,359.74210760789197,343.3943591555232
2026-09-29 20:27:36.166024448,0.0813974609375,-0.13885449218749998,10.2034111328125,0.0,0.0,0.0,359.805404559743,359.7415410264895,343.3939764873762
2026-09-29 20:27:36.181651456,0.055062988281249996,-0.16040087890625,10.201017089843749,0.0,0.0,-0.0010652644360316954,359.8042897987876,359.74108290093403,343.39359247722285
2026-09-29 20:27:36.181651456,0.11012597656249999,-0.124490234375,10.21059326171875,0.0010652644360316954,0.0,0.0,359.80329562976834,359.74073207950937,343.3935142999911
2026-09-29 20:27:36.197276928,0.10533789062499999,-0.13406640625,10.17707666015625,0.0,0.0,0.0,359.80249997908305,359.74023764394155,343.3937404850282
2026-09-29 20:27:36.197276928,0.09576171874999999,-0.13885449218749998,10.212987304687498,0.0,-0.0010652644360316954,0.0,359.80096298807325,359.7395441027823,343.39396835429653
2026-09-29 20:27:36.197276928,0.162794921875,-0.13885449218749998,10.196229003906248,0.0,-0.0010652644360316954,0.0,359.79984133334386,359.7387611582823,343.39419574007627
2026-09-29 20:27:36.197276928,0.10533789062499999,-0.162794921875,10.205805175781249,0.0,0.0,-0.0010652644360316954,359.7990691726012,359.7377520619645,343.3938126250167
2026-09-29 20:27:36.228525568,0.08618554687499999,-0.13167236328124998,10.18665283203125,0.0,0.0010652644360316954,-0.0010652644360316954,359.7980590181764,359.73775320007485,343.3937336692925
2026-09-29 20:27:36.228525568,0.10773193359375,-0.1675830078125,10.222563476562499,0.0,0.0,-0.0010652644360316954,359.79723662131636,359.7373943377015,343.39334974190047
2026-09-29 20:27:36.259775488,0.1005498046875,-0.12688427734375,10.222563476562499,0.0,0.0,0.0,359.79581927896396,359.7369988974005,343.39327219788373
2026-09-29 20:27:36.259775488,0.09336767578124999,-0.13167236328124998,10.22016943359375,0.0010652644360316954,0.0,-0.0010652644360316954,359.79551855869056,359.7367347114555,343.39288719014314
2026-09-29 20:27:36.291272960,0.07421533203125,-0.13167236328124998,10.1651064453125,0.0010652644360316954,0.0010652644360316954,0.0,359.79465035654493,359.73693731234437,343.39250124868016
2026-09-29 20:27:36.291272960,0.09576171874999999,-0.16518896484374998,10.251291992187499,0.0,0.0,0.0,359.7943484080977,359.73684669766953,343.3927266538248
