Timestamp,ax,ay,az,gx,gy,gz,roll,pitch,yaw
2026-09-29 19:33:04.362740480,-1.63991943359375,-1.3119355468749998,10.222563476562499,0.11398329465539139,0.30466562870506486,-0.012783173232380343,354.8185390402459,7.969237345967962,322.14509680123115
2026-09-29 19:33:04.362740480,-1.6542836914062498,-1.2425083007812499,10.239321777343749,0.1320927900679302,0.28868666216458944,-0.030892668644919165,354.88356973348823,8.13695269749423,322.1137026453814
2026-09-29 19:33:04.362740480,-1.69258837890625,-1.1443525390625,10.1746826171875,0.15339807878856412,0.2748382244961774,-0.05113269292952137,354.95960022731,8.295853738896191,322.0722333492948
2026-09-29 19:33:04.466567680,-1.7117407226562498,-1.024650390625,9.968794921874998,0.16192019427681767,0.26312031569982874,-0.07350324608618697,355.0419077515153,8.446242059659284,322.0185426350214
2026-09-29 19:33:04.708938496,-1.70216455078125,-0.8570673828125,9.956824707031249,0.1576591365326909,0.2567287290836386,-0.09480853480682087,355.12300893865495,8.59150034245482,321.95330071429885
2026-09-29 19:33:04.708938496,-1.6734360351562498,-0.7086367187499999,9.851486816406249,0.1320927900679302,0.25246767133951176,-0.1129180302193597,355.192170277229,8.732833674532133,321.87764263711614
2026-09-29 19:33:04.708938496,-1.7428632812499998,-0.6176630859375,9.839516601562499,0.08628641931856731,0.2567287290836386,-0.1320927900679302,355.23723467091384,8.874685653929339,321.79168853291554
2026-09-29 19:33:04.708938496,-1.79792626953125,-0.61526904296875,9.87542724609375,0.04261057744126781,0.25779399351967025,-0.14700649217237394,355.25570173266476,9.017667810706833,321.6959504494969
2026-09-29 19:33:04.708938496,-1.9008701171874998,-0.7038486328125,9.93288427734375,0.006391586616190171,0.25033714246744837,-0.15978966540475428,355.25115627231105,9.157119140966163,321.5924403754686
2026-09-29 19:33:04.708938496,-1.9631152343749998,-0.7636997070312499,9.9975234375,-0.017044230976507126,0.23968449810713144,-0.17257283863713463,355.2266686254708,9.291658990704693,321.48201131149074
2026-09-29 19:33:04.708938496,-2.0540888671874997,-0.9145244140625,9.949642578125,-0.012783173232380343,0.23009711818284617,-0.1757686319452297,355.19892782163294,9.420897587071321,321.36904466847477
2026-09-29 19:33:04.716529920,-2.1426684570312498,-0.94085888671875,9.944854492187499,0.005326322180158476,0.20985709389824397,-0.17150757420110294,355.1813238835194,9.540732532741716,321.25729875683487
2026-09-29 19:33:04.716529920,-2.078029296875,-0.8857958984375,9.856274902343749,0.030892668644919165,0.19281286292173686,-0.17044230976507124,355.1764188564494,9.649929581168161,321.1478682194966
2026-09-29 19:33:04.716529920,-2.0899995117187498,-0.8738256835937499,9.80360595703125,0.043675841877299504,0.17683389638126143,-0.16405072314888108,355.1817146324825,9.74993784289478,321.0421198010883
2026-09-29 19:33:04.716529920,-2.15224462890625,-0.8259448242187499,9.8203642578125,0.054328486237616457,0.16405072314888108,-0.1587244009687226,355.19464902014914,9.842290288617182,320.94104341382496
2026-09-29 19:33:04.725037056,-2.154638671875,-0.7445473632812499,9.758119140624999,0.05113269292952137,0.15126754991650074,-0.16085492984078598,355.2087177872037,9.927604327424435,320.8404071168079
2026-09-29 19:33:04.725037056,-2.2120957031249997,-0.67272607421875,9.813182128906249,0.04261057744126781,0.14061490555618378,-0.16405072314888108,355.218801361017,10.006427643742102,320.73951818528144
2026-09-29 19:33:04.725037056,-2.20491357421875,-0.5985107421875,9.880215332031248,0.021305288720633905,0.12463593901570835,-0.17470336750919802,355.21802614773276,10.077865124451046,320.63321791069205
2026-09-29 19:33:04.725037056,-2.24082421875,-0.6368154296874999,9.8778212890625,-0.005326322180158476,0.10759170803920122,-0.18642127630554667,355.2020040576372,10.138288841634232,320.52134606375614
2026-09-29 19:33:04.725037056,-2.269552734375,-0.73018310546875,9.839516601562499,-0.049002164057457984,0.08948221262666241,-0.19707392066586363,355.1608516775958,10.188753821487229,320.4036831746737
2026-09-29 19:33:04.740669184,-2.29588720703125,-0.83552099609375,9.96640087890625,-0.07669903939428206,0.07137271721412358,-0.2034655072820538,355.0983233600822,10.228350950007888,320.28235661952283
2026-09-29 19:33:04.740669184,-2.31982763671875,-0.9647993164062499,9.911337890625,-0.07030745277809189,0.059654808417774936,-0.19920444953792701,355.0338316631008,10.260636239507626,320.1620246477859
2026-09-29 19:33:04.740669184,-2.2982812499999996,-1.03662060546875,10.026251953125,-0.03302319751698255,0.05113269292952137,-0.18961706961364175,354.9856652012489,10.287118859338737,320.04659418092194
2026-09-29 19:33:04.771927296,-2.3964370117187497,-1.04619677734375,10.04301025390625,0.01384843766841204,0.04154531300523612,-0.17363810307316632,354.96619236137536,10.30873874322319,319.9405184998385
2026-09-29 19:33:04.771927296,-2.41080126953125,-0.9217065429687499,10.0693447265625,0.04687163518539459,0.02876213977285577,-0.1587244009687226,354.97144619758933,10.325751716402102,319.8440795081984
2026-09-29 19:33:04.787543040,-2.44431787109375,-0.7277890625,10.0884970703125,0.05326322180158476,0.010652644360316953,-0.14594122773634224,354.9871160323808,10.333340522225626,319.75618705680677
2026-09-29 19:33:04.787543040,-2.3701025390624997,-0.64878564453125,9.97597705078125,0.03621899082507764,-0.007456851052221867,-0.13954964112015208,354.99896934490835,10.330477130579803,319.67427024903736
2026-09-29 19:33:04.787543040,-2.35813232421875,-0.62005712890625,10.04301025390625,-0.004261057744126781,-0.030892668644919165,-0.13422331893999362,354.9919768242206,10.315868695341385,319.59692434893043
2026-09-29 19:33:04.787543040,-2.2910991210937497,-0.7397592773437499,9.990341308593749,-0.04154531300523612,-0.05006742849348968,-0.1331580545039619,354.9613030998288,10.289099414807426,319.52182753602307
2026-09-29 19:33:04.787543040,-2.2025195312499997,-0.83552099609375,9.944854492187499,-0.05539375067364816,-0.0660463950339651,-0.12463593901570835,354.9192284046737,10.252596700578808,319.45078726207026
2026-09-29 19:33:04.787543040,-2.1115458984375,-0.9360708007812499,9.9161259765625,-0.06285060172587002,-0.07456851052221868,-0.11398329465539139,354.872958890695,10.208927977955423,319.38641580731036
2026-09-29 19:33:04.787543040,-2.0014199218749997,-0.99352783203125,9.9209140625,-0.05645901510967985,-0.0692421883420602,-0.10120012142301105,354.82804070007285,10.165745757353163,319.3286052315901
2026-09-29 19:33:04.787543040,-1.9535390624999998,-1.0318325195312499,9.87063916015625,-0.04048004856920442,-0.05858954398174324,-0.08841694819063071,354.7924959285225,10.128400380531861,319.27761012973247
2026-09-29 19:33:04.787543040,-1.9511450195312499,-1.0390146484375,9.9975234375,-0.02663161090079238,-0.043675841877299504,-0.07456851052221868,354.76603926011484,10.099393373747372,319.23450611934084
2026-09-29 19:33:04.803166976,-1.9990258789062498,-0.99831591796875,10.007099609374999,-0.017044230976507126,-0.03195793308095086,-0.06072007285380663,354.7473873883769,10.078191978609068,319.19818124503473
2026-09-29 19:33:04.803166976,-2.0109960937499998,-0.995921875,9.9975234375,-0.012783173232380343,-0.02663161090079238,-0.0458063707493629,354.7335250381784,10.062072245149606,319.17021434963107
2026-09-29 19:33:04.803166976,-2.0181782226562497,-1.01507421875,10.057374511718749,-0.005326322180158476,-0.025566346464760685,-0.03195793308095086,354.72484119973547,10.04767767953851,319.15021306581133
2026-09-29 19:33:04.803166976,-2.058876953125,-1.01507421875,10.050192382812499,0.005326322180158476,-0.024501082028728992,-0.017044230976507126,354.7247212119967,10.034583156701844,319.13910516804395
2026-09-29 19:33:04.803166976,-1.9990258789062498,-0.9552231445312499,10.002311523437498,0.010652644360316953,-0.02663161090079238,-0.007456851052221867,354.7295507720672,10.021565304535251,319.1339362404601
2026-09-29 19:33:04.803166976,-1.9870556640625,-0.9528291015624999,9.95921875,0.014913702104443734,-0.02663161090079238,0.0,354.7385457975322,10.008469121276557,319.1341274484785
2026-09-29 19:33:04.803166976,-2.0014199218749997,-0.9288886718749999,9.930490234374998,0.01597896654047543,-0.02663161090079238,0.004261057744126781,354.7491322108638,9.995564405889871,319.1374261591386
2026-09-29 19:33:04.803166976,-1.9535390624999998,-0.8714316406249999,9.83712255859375,0.0021305288720633907,-0.029827404208887468,0.004261057744126781,354.75440645216395,9.981146716181351,319.1414901440546
2026-09-29 19:33:04.803166976,-1.8482011718749998,-0.9576171874999999,9.8586689453125,-0.014913702104443734,-0.02769687533682408,0.0031957933080950856,354.74901037188897,9.967132081820845,319.1452269502773
2026-09-29 19:33:04.822912256,-1.8458071289062499,-1.0270444335937499,9.825152343749998,-0.02769687533682408,-0.01810949541253882,0.0031957933080950856,354.7342009389709,9.956816917121277,319.1481040020603
2026-09-29 19:33:04.823912192,-1.8482011718749998,-1.09886572265625,9.87063916015625,-0.03621899082507764,-0.008522115488253563,0.0021305288720633907,354.71322069699977,9.95192429123801,319.15001771360164
2026-09-29 19:33:04.823912192,-1.8338369140625,-1.1108359374999999,9.801211914062499,-0.03195793308095086,0.007456851052221867,0.005326322180158476,354.6918408554534,9.955849452596704,319.1519049298216
2026-09-29 19:33:04.825913344,-1.8721416015624999,-1.1635048828124999,9.82275830078125,-0.01597896654047543,0.023435817592697295,0.005326322180158476,354.6774660597047,9.969262307358813,319.15347132501415
2026-09-29 19:33:04.827191296,-1.93438671875,-1.15632275390625,9.8490927734375,0.0,0.039414784133172724,0.004261057744126781,354.6719808482521,9.991830475242644,319.1538278367196
2026-09-29 19:33:04.827982336,-2.0277543945312497,-1.10844189453125,9.90894384765625,0.009587379924285258,0.05326322180158476,0.0,354.67361175908934,10.02327659571017,319.15159765807067
2026-09-29 19:33:04.843613952,-2.07563525390625,-1.1156240234375,9.892185546875,0.012783173232380343,0.05645901510967985,-0.010652644360316953,354.6779751447605,10.057768578612631,319.14299583739677
2026-09-29 19:33:04.843613952,-2.1067578124999997,-1.0749252929687498,9.913731933593748,0.008522115488253563,0.059654808417774936,-0.022370553156665602,354.6796019808854,10.094021185988582,319.12743365913815
2026-09-29 19:33:04.859243520,-2.1402744140624996,-1.14674658203125,9.940066406249999,0.0010652644360316954,0.05858954398174324,-0.03834951969714103,354.67548468573966,10.129471340913224,319.10328873876205
2026-09-29 19:33:04.859243520,-2.12830419921875,-1.26644873046875,9.94246044921875,0.0010652644360316954,0.05645901510967985,-0.05645901510967985,354.66784894016877,10.163404820377618,319.06922108982906
2026-09-29 19:33:04.874860800,-2.1450625,-1.31432958984375,9.949642578125,0.01384843766841204,0.05752427954571154,-0.07243798165015528,354.66205982140247,10.196127735162682,319.02504138601506
2026-09-29 19:33:04.890485248,-2.17139697265625,-1.27602490234375,9.906549804687499,0.035153726389045944,0.054328486237616457,-0.08948221262666241,354.66597331408514,10.227384192366133,318.97128288842356
2026-09-29 19:33:04.897936128,-2.17139697265625,-1.2592666015624998,9.949642578125,0.05326322180158476,0.049002164057457984,-0.10546117916713783,354.67994995547116,10.25504713076562,318.90799063216997
2026-09-29 19:33:04.897936128,-2.1690029296874997,-1.197021484375,9.9927353515625,0.059654808417774936,0.0458063707493629,-0.12037488127158157,354.6981673344764,10.27936268436865,318.8366296365363
2026-09-29 19:33:04.913563904,-2.15703271484375,-1.19941552734375,9.98076513671875,0.05752427954571154,0.044741106313331204,-0.13422331893999362,354.71430275892203,10.30173366694939,318.7570751421508
2026-09-29 19:33:04.929189632,-2.05169482421875,-1.2951772460937498,9.9257021484375,0.05752427954571154,0.04261057744126781,-0.14913702104443735,354.7286974877266,10.321491187473697,318.66963200400505
2026-09-29 19:33:04.929189632,-2.10915185546875,-1.37657470703125,9.940066406249999,0.06391586616190172,0.04687163518539459,-0.16511598758491278,354.7433409862682,10.342200584381104,318.57244547242124
2026-09-29 19:33:04.944815104,-2.0708471679687497,-1.53936962890625,10.00470556640625,0.0692421883420602,0.05219795736555307,-0.18748654074157836,354.75726109536794,10.364759510320752,318.4621338723976
2026-09-29 19:33:04.960438528,-2.0828173828125,-1.675830078125,9.949642578125,0.08735168375459901,0.054328486237616457,-0.21198762277030736,354.775032522206,10.38777287185692,318.33807170625784
2026-09-29 19:33:04.960438528,-1.9559331054687499,-1.8098964843749998,9.89457958984375,0.11504855909142309,0.05539375067364816,-0.23755396923506805,354.8031401296948,10.409261320443608,318.1985893789943
2026-09-29 19:33:04.976088576,-1.8242607421875,-1.9726914062499998,9.9544306640625,0.16085492984078598,0.06711165946999681,-0.262055051263797,354.85062865795317,10.432923247414335,318.04443190735395
2026-09-29 19:33:04.976088576,-1.6471015624999998,-2.09478759765625,9.906549804687499,0.21837920938649752,0.09800432811491597,-0.2876213977285577,354.92524746221335,10.468903342342609,317.873772778617
2026-09-29 19:33:05.007379200,-1.5992207031249999,-2.12591015625,9.90415576171875,0.297208777652843,0.1352885833760253,-0.3153182730653818,355.0361432858511,10.523228806615112,317.68521009498187
2026-09-29 19:33:05.007379200,-1.6040087890624999,-2.058876953125,9.918520019531249,0.3824299325353786,0.17470336750919802,-0.346210941710301,355.19171041750684,10.598260512858804,317.4773964618121
2026-09-29 19:33:05.038657280,-1.7524394531249998,-1.9535390624999998,9.913731933593748,0.4569984430575973,0.20985709389824397,-0.3824299325353786,355.38898381256257,10.693513570106141,317.24833115602775
2026-09-29 19:33:05.054254848,-1.8577773437499998,-1.70216455078125,9.863457031249999,0.5049353426790235,0.2269013248747511,-0.41971418779648795,355.61414716114433,10.802355873569027,316.99700359387765
2026-09-29 19:33:05.054254848,-1.8338369140625,-1.69737646484375,9.817970214843749,0.534762746887911,0.23435817592697297,-0.4538026497495022,355.8555353663248,10.915369881567342,316.72527378170827
2026-09-29 19:33:05.054254848,-1.8314428710937498,-1.5680981445312498,9.880215332031248,0.5507417134283865,0.2545982002115752,-0.4900216405745798,356.10328601677907,11.037874367876212,316.4323850048233
2026-09-29 19:33:05.054254848,-1.8912939453125,-1.52500537109375,9.87063916015625,0.5784385887652105,0.2769687533682408,-0.5219795736555307,356.3615220877945,11.17247691572142,316.12001320412645
2026-09-29 19:33:05.069879296,-1.8912939453125,-1.4603662109375,9.801211914062499,0.5986786130498127,0.3025350998330015,-0.5581985644806083,356.6279496669265,11.321514202642655,315.78671233970806
2026-09-29 19:33:05.085538304,-2.07563525390625,-1.31911767578125,9.880215332031248,0.6242449595145735,0.32916671073379383,-0.5954828197417177,356.90211819260725,11.486589563805543,315.43131009418335
2026-09-29 19:33:05.085538304,-2.3006752929687497,-1.2472963867187499,9.853880859375,0.6540723637234609,0.33236250404188894,-0.6317018105667953,357.1891986295523,11.660123060653381,315.05494519153484
2026-09-29 19:33:05.101172224,-2.4826225585937496,-1.00310400390625,9.87063916015625,0.6753776524440948,0.3227751241176037,-0.6604639503396511,357.48659263371377,11.83273789436429,314.6618315465595
2026-09-29 19:33:05.110195968,-2.6334472656249996,-0.83552099609375,9.885003417968749,0.6807039746242532,0.30360036426903314,-0.6807039746242532,357.78765294400057,11.999290356720937,314.2576879324497
2026-09-29 19:33:05.117202432,-2.5879604492187496,-0.6559677734374999,9.784453613281249,0.6796387101882216,0.272707695624114,-0.6966829411647287,358.0880195081964,12.151213239074801,313.84382912306506
2026-09-29 19:33:05.133319680,-2.6166889648437497,-0.545841796875,9.817970214843749,0.671116594699968,0.26098978682776536,-0.7084008499610773,358.3819129825236,12.294656043773115,313.42482228823746
2026-09-29 19:33:05.149867264,-2.690904296875,-0.28010302734375,9.911337890625,0.6657902725198096,0.2450108202872899,-0.7158577010132993,358.6717283228981,12.433508891195286,313.0011015277223
2026-09-29 19:33:05.149867264,-2.6406293945312496,-0.06942724609374999,9.873033203124999,0.6540723637234609,0.22903185374681448,-0.720118758757426,358.95674571601813,12.563404260483637,312.5757201841557
2026-09-29 19:33:05.149867264,-2.72681494140625,0.20828173828125,9.851486816406249,0.6231796950785418,0.21198762277030736,-0.7169229654493309,359.22866775290345,12.685624035347955,312.15201558385957
2026-09-29 19:33:05.180562944,-2.7723017578124995,0.44050390624999997,9.856274902343749,0.5709817377129887,0.18748654074157836,-0.7073355855250457,359.47691546999647,12.798384416532583,311.73407060547447
2026-09-29 19:33:05.180562944,-2.73639111328125,0.6296333007812499,9.8107880859375,0.5123921937312454,0.16618125202094447,-0.692421883420602,359.6946876896093,12.89949202751151,311.3250796567031
2026-09-29 19:33:05.191948032,-2.6382353515625,0.69666650390625,9.72699658203125,0.4495415920053754,0.15126754991650074,-0.6657902725198096,359.88042004849103,12.991763446017943,310.9301402960957
2026-09-29 19:33:05.196488448,-2.6478115234375,0.70145458984375,9.796423828124999,0.384560461407442,0.15233281435253243,-0.6338323394388586,0.032243986365663974,13.082144224135035,310.5529354058089
2026-09-29 19:33:05.212124160,-2.7316030273437497,0.6535737304687499,9.777271484375,0.3344930329139523,0.14807175660840563,-0.594417555305686,0.1599009913331162,13.172395078653702,310.19926278662814
2026-09-29 19:33:05.212124160,-2.7555434570312496,0.72539501953125,9.923308105468749,0.2940129843447479,0.136353847812057,-0.5443501268121963,0.2655908832941262,13.257786444902067,309.87241809980577
2026-09-29 19:33:05.227822592,-2.7483613281249997,0.7230009765625,9.911337890625,0.28336033998443094,0.12144014570761326,-0.4878911117025164,0.36951928611184115,13.336006509118585,309.57857117193345
2026-09-29 19:33:05.259100416,-2.77708984375,0.7876401367187499,9.834728515624999,0.2748382244961774,0.10439591473110614,-0.4207794522325196,0.4751737913250507,13.40514778985848,309.32207947745314
2026-09-29 19:33:05.259100416,-2.72681494140625,0.86424951171875,9.868245117187499,0.2450108202872899,0.08841694819063071,-0.35260252832649114,0.5782791319920765,13.465235423503954,309.1057958194308
2026-09-29 19:33:05.259100416,-2.7459672851562495,0.9839516601562499,9.87063916015625,0.20453077171808548,0.07456851052221868,-0.27909928224030417,0.6690134938008906,13.515674090954882,308.93173394001997
2026-09-29 19:33:05.259100416,-2.6693579101562497,0.995921875,9.8203642578125,0.1629854587128494,0.06498113059793341,-0.2002697139739587,0.7482588270218765,13.55953602821117,308.80402423371
2026-09-29 19:33:05.277524224,-2.6430234374999997,1.0174682617187498,9.856274902343749,0.12357067457967666,0.07030745277809189,-0.11717908796348649,0.8152468342024525,13.603112239966249,308.72499898982414
2026-09-29 19:33:05.292914432,-2.6142949218749996,1.024650390625,9.944854492187499,0.10120012142301105,0.07669903939428206,-0.03728425526110934,0.8782271993487817,13.649332353521814,308.693508301041
2026-09-29 19:33:05.312741376,-2.60232470703125,1.0102861328125,9.868245117187499,0.07350324608618697,0.08948221262666241,0.03195793308095086,0.9377776281701274,13.700549674238978,308.70551665621855
2026-09-29 19:33:05.313867520,-2.6478115234375,0.9097363281249999,9.8873974609375,0.02876213977285577,0.10120012142301105,0.08735168375459901,0.9814350497117319,13.758592895097062,308.7527724158552
2026-09-29 19:33:05.313867520,-2.7818779296874996,0.8857958984375,9.806,-0.01597896654047543,0.10226538585904274,0.12250541014364495,1.0036230896819183,13.8205105877353,308.8234164732974
2026-09-29 19:33:05.338292480,-2.7842719726562497,0.59611669921875,9.729390624999999,-0.06498113059793341,0.0905474770626941,0.14168016999221547,0.9993872572277804,13.87735003879572,308.90785278183887
2026-09-29 19:33:05.345293824,-2.83215283203125,0.27531494140624996,9.65038720703125,-0.10333065029507445,0.08309062601047223,0.14594122773634224,0.9684714499715348,13.92898501013181,308.9952030003826
2026-09-29 19:33:05.345293824,-2.7483613281249997,-0.043092773437499995,9.5713837890625,-0.11398329465539139,0.07456851052221868,0.13954964112015208,0.9241877116114469,13.97699028708876,309.0797388101148
2026-09-29 19:33:05.393757440,-2.8010302734374997,-0.25616259765625,9.590536132812499,-0.09587379924285258,0.0692421883420602,0.12676646788777174,0.8808267923137538,14.021320919106374,309.1567894442099
2026-09-29 19:33:05.393757440,-2.8513051757812495,-0.42135156249999994,9.607294433593749,-0.05113269292952137,0.06178533728983833,0.10333065029507445,0.8542407926157571,14.062442541659356,309.2209547365119
2026-09-29 19:33:05.393757440,-2.97100732421875,-0.43571582031249995,9.597718261718748,0.0,0.0458063707493629,0.07456851052221868,0.8518461831789913,14.096767443941182,309.2682913056998
2026-09-29 19:33:05.414314496,-3.02367626953125,-0.40698730468749994,9.73178466796875,0.04793689962142629,0.012783173232380343,0.03728425526110934,0.8732379356094263,14.115055388036511,309.29457508048904
2026-09-29 19:33:05.441569024,-2.9781894531249997,-0.32319580078125,9.76051318359375,0.0905474770626941,-0.02663161090079238,0.0,0.9155792293679221,14.111711042697413,309.2980079591741
2026-09-29 19:33:05.441569024,-2.9231264648437496,-0.17955322265624998,9.703056152343748,0.11717908796348649,-0.0681769239060285,-0.04048004856920442,0.9710204801122074,14.083888930482873,309.2776583454367
2026-09-29 19:33:05.474033408,-2.7579374999999997,-0.04548681640625,9.729390624999999,0.13954964112015208,-0.09587379924285258,-0.08096009713840883,1.0347559895677254,14.037885308473388,309.23337902922697
2026-09-29 19:33:05.478641408,-2.6430234374999997,0.043092773437499995,9.762907226562499,0.15978966540475428,-0.11398329465539139,-0.11717908796348649,1.1059871467862539,13.978888021662126,309.1671186411318
2026-09-29 19:33:05.479407360,-2.4945927734374997,0.22025195312499998,9.779665527343749,0.1810949541253882,-0.12037488127158157,-0.14700649217237394,1.1866844573053463,13.913402844477034,309.0827600724464
2026-09-29 19:33:05.479407360,-2.37249658203125,0.38544091796874996,9.8443046875,0.19174759848570516,-0.11611382352745478,-0.17150757420110294,1.2726539761521956,13.847717572204376,308.9828022820993
2026-09-29 19:33:05.494807296,-2.3006752929687497,0.5242954101562499,9.825152343749998,0.19387812735776855,-0.10120012142301105,-0.18855180517761005,1.3608263545653188,13.78877583372245,308.87233755223554
2026-09-29 19:33:05.494807296,-2.2934931640625,0.7086367187499999,9.815576171875,0.1821602185614199,-0.07882956826634545,-0.2013349784099904,1.4438679542412027,13.741300769581255,308.7539363494501
2026-09-29 19:33:05.511027456,-2.28631103515625,0.7900341796874999,9.817970214843749,0.1555286076606275,-0.05752427954571154,-0.20879182946221228,1.5145191124991562,13.70654994728903,308.63151425443283
2026-09-29 19:33:05.511027456,-2.3006752929687497,0.8522792968749999,9.86106298828125,0.11717908796348649,-0.03834951969714103,-0.21305288720633905,1.5645994420997162,13.683496100544081,308.50672526774053
2026-09-29 19:33:05.511027456,-2.4131953124999996,0.85946142578125,9.863457031249999,0.07563377495825037,-0.023435817592697295,-0.21518341607840244,1.591299792043855,13.670174664619895,308.38071919019427
2026-09-29 19:33:05.511027456,-2.4658642578124996,0.833126953125,9.928096191406249,0.03621899082507764,-0.023435817592697295,-0.21411815164237075,1.595007412761672,13.660075386910064,308.2551100717163
2026-09-29 19:33:05.511027456,-2.49698681640625,0.7325771484375,9.8778212890625,0.006391586616190171,-0.03408846195301425,-0.2077265650261806,1.580804504696657,13.646140589232816,308.13206761955246
2026-09-29 19:33:05.527022592,-2.48741064453125,0.66793798828125,9.901761718749999,-0.010652644360316953,-0.04793689962142629,-0.19813918510189532,1.5534321863656155,13.624534481610274,308.0135584306429
2026-09-29 19:33:05.541630208,-2.4227714843749997,0.49317285156249996,9.889791503906249,-0.022370553156665602,-0.059654808417774936,-0.18642127630554667,1.5195231273339935,13.595742846040753,307.90099946767623
2026-09-29 19:33:05.541630208,-2.30546337890625,0.42613964843749996,9.868245117187499,-0.024501082028728992,-0.059654808417774936,-0.17683389638126143,1.4822712211213802,13.564153407373071,307.7942718877327
2026-09-29 19:33:05.558964224,-2.28631103515625,0.35671240234374996,9.791635742187498,-0.02769687533682408,-0.05219795736555307,-0.16405072314888108,1.4453198957100621,13.535250284393952,307.6944636757966
2026-09-29 19:33:05.584907776,-2.3533442382812497,0.36868261718749995,9.834728515624999,-0.02769687533682408,-0.04048004856920442,-0.15126754991650074,1.4091669466098626,13.512364080088727,307.6022681303463
2026-09-29 19:33:05.584907776,-2.384466796875,0.31361962890624995,9.83233447265625,-0.02663161090079238,-0.03408846195301425,-0.1384843766841204,1.3751095079989832,13.49430403344768,307.5183246973655
2026-09-29 19:33:05.584907776,-2.45389404296875,0.28728515624999995,9.87063916015625,-0.025566346464760685,-0.03302319751698255,-0.12144014570761326,1.3435478640316205,13.477315833046832,307.44345523078283
2026-09-29 19:33:05.607623680,-2.43474169921875,0.28010302734375,9.90894384765625,-0.021305288720633905,-0.03621899082507764,-0.10546117916713783,1.315833566247569,13.459770642791064,307.377944405481
2026-09-29 19:33:05.609942016,-2.4395297851562496,0.29446728515625,9.923308105468749,-0.01597896654047543,-0.04154531300523612,-0.08948221262666241,1.2932921399775885,13.439228100000456,307.32177573536376
2026-09-29 19:33:05.623462400,-2.4395297851562496,0.27052685546875,9.906549804687499,-0.012783173232380343,-0.04687163518539459,-0.07776430383031376,1.2752208475027609,13.415463652196511,307.27336680538934
2026-09-29 19:33:05.634332160,-2.39164892578125,0.27531494140624996,9.801211914062499,-0.02024002428460221,-0.05219795736555307,-0.06711165946999681,1.2552772317957073,13.388372999910988,307.23088295150905
2026-09-29 19:33:05.641728768,-2.3509501953124996,0.26095068359374995,9.67193359375,-0.02769687533682408,-0.05219795736555307,-0.06072007285380663,1.2322354428388307,13.360397314611294,307.19274634223143
2026-09-29 19:33:05.666779136,-2.3365859374999998,0.201099609375,9.734178710937499,-0.02876213977285577,-0.04793689962142629,-0.05219795736555307,1.2078949849730038,13.333502683692315,307.1593696294986
2026-09-29 19:33:05.666779136,-2.2910991210937497,0.18434130859374998,9.7724833984375,-0.023435817592697295,-0.04048004856920442,-0.04048004856920442,1.186431112844053,13.309847905564453,307.1324895982539
2026-09-29 19:33:05.666779136,-2.2839169921874998,0.23461621093749999,9.841910644531248,-0.009587379924285258,-0.02663161090079238,-0.023435817592697295,1.1748946076015483,13.292712672770874,307.1155607779135
2026-09-29 19:33:05.691633408,-2.2910991210937497,0.2681328125,9.82275830078125,0.0010652644360316954,-0.009587379924285258,-0.005326322180158476,1.174067008844229,13.284098744951208,307.10954400588
2026-09-29 19:33:05.691633408,-2.3892548828124998,0.29207324218749997,9.8490927734375,0.009587379924285258,0.004261057744126781,0.012783173232380343,1.1808873534788404,13.28467696291593,307.1145115745633
2026-09-29 19:33:05.716877824,-2.43474169921875,0.31840771484374997,9.846698730468749,0.004261057744126781,0.014913702104443734,0.02876213977285577,1.1893443366994303,13.292498011711212,307.1297030498453
2026-09-29 19:33:05.718921728,-2.5041689453125,0.34474218749999996,9.856274902343749,-0.009587379924285258,0.017044230976507126,0.04154531300523612,1.192199249993806,13.303524382919697,307.1528405064175
2026-09-29 19:33:05.725734656,-2.5807783203124997,0.33277197265624997,9.813182128906249,-0.022370553156665602,0.012783173232380343,0.05539375067364816,1.1891921752549377,13.313722949722091,307.1845113418241
2026-09-29 19:33:05.725734656,-2.5735961914062497,0.2681328125,9.806,-0.02769687533682408,0.005326322180158476,0.06711165946999681,1.1834662648782683,13.321019454792768,307.2225664049239
2026-09-29 19:33:05.758213120,-2.5664140625,0.24179833984375,9.82275830078125,-0.02769687533682408,0.0,0.07669903939428206,1.1777137635958335,13.323943057226055,307.26631122025736
2026-09-29 19:33:05.791937024,-2.5807783203124997,0.2154638671875,9.896973632812498,-0.02024002428460221,-0.006391586616190171,0.08415589044650393,1.176568128513091,13.322858391197709,307.31465402460594
2026-09-29 19:33:05.811439616,-2.575990234375,0.2537685546875,9.86585107421875,-0.01384843766841204,-0.012783173232380343,0.08948221262666241,1.1804925962975665,13.31886567413831,307.36668217427535
2026-09-29 19:33:05.823944192,-2.5807783203124997,0.2681328125,9.82754638671875,-0.009587379924285258,-0.019174759848570515,0.09374327037078918,1.1872800866011317,13.310463767562355,307.4211664986685
2026-09-29 19:33:05.823944192,-2.5568378906249998,0.26095068359374995,9.841910644531248,-0.007456851052221867,-0.025566346464760685,0.09693906367888427,1.1963530894450816,13.29857952875189,307.4775376744001
2026-09-29 19:33:05.823944192,-2.5281093749999997,0.31361962890624995,9.8586689453125,-0.008522115488253563,-0.03302319751698255,0.10013485698697935,1.2061629838861305,13.282219152083206,307.5359907182129
2026-09-29 19:33:05.844501760,-2.51613916015625,0.27531494140624996,9.8443046875,-0.011717908796348648,-0.03621899082507764,0.10546117916713783,1.2146285825636183,13.263396325935338,307.5969543242104
2026-09-29 19:33:05.845020160,-2.480228515625,0.25616259765625,9.825152343749998,-0.01384843766841204,-0.04154531300523612,0.10972223691126462,1.2223602429427818,13.241498701499724,307.6609391208354
2026-09-29 19:33:05.845020160,-2.5185332031249996,0.28728515624999995,9.82754638671875,-0.01384843766841204,-0.0458063707493629,0.11611382352745478,1.2301433345103017,13.216425613043784,307.72791497692896
2026-09-29 19:33:05.845020160,-2.4562880859374996,0.24179833984375,9.815576171875,-0.011717908796348648,-0.049002164057457984,0.12144014570761326,1.2396672828392452,13.18962763975785,307.798297942022
2026-09-29 19:33:05.845020160,-2.4227714843749997,0.22025195312499998,9.841910644531248,-0.009587379924285258,-0.05219795736555307,0.12357067457967666,1.2499852194540257,13.160028335283302,307.870088149027
2026-09-29 19:33:05.858247680,-2.44431787109375,0.22025195312499998,9.801211914062499,-0.007456851052221867,-0.05539375067364816,0.12676646788777174,1.262067764990038,13.128834767128282,307.9439737004265
2026-09-29 19:33:05.858247680,-2.3892548828124998,0.23461621093749999,9.8443046875,-0.008522115488253563,-0.054328486237616457,0.12570120345174005,1.2736691823403021,13.09719970870111,308.0175089665084
2026-09-29 19:33:05.875419648,-2.40122509765625,0.22264599609375,9.801211914062499,-0.009587379924285258,-0.05219795736555307,0.12357067457967666,1.285070500122029,13.066547089703729,308.09020341264414
2026-09-29 19:33:05.875419648,-2.384466796875,0.1963115234375,9.796423828124999,-0.010652644360316953,-0.05219795736555307,0.11824435239951818,1.294417503108608,13.036580477454441,308.1600356365035
2026-09-29 19:33:05.895047680,-2.365314453125,0.18912939453125,9.89457958984375,-0.011717908796348648,-0.05113269292952137,0.11504855909142309,1.3028255900373713,13.007264603901287,308.2279500756441
2026-09-29 19:33:05.895047680,-2.3629204101562498,0.1963115234375,9.889791503906249,-0.006391586616190171,-0.05006742849348968,0.111852765783328,1.3126026743664716,12.977975766116842,308.29361341119966
2026-09-29 19:33:05.908154112,-2.3964370117187497,0.16997705078124997,9.928096191406249,0.0,-0.05006742849348968,0.10865697247523291,1.326495470944276,12.948174412041622,308.35737639086057
2026-09-29 19:33:05.929592064,-2.3701025390624997,0.21785791015624997,9.83233447265625,0.005326322180158476,-0.04687163518539459,0.10546117916713783,1.3434279008798307,12.920464064903536,308.418945320072
2026-09-29 19:33:05.929592064,-2.3246157226562496,0.20828173828125,9.8778212890625,0.005326322180158476,-0.04261057744126781,0.10120012142301105,1.3608317143492077,12.894202990672262,308.47843532077513
2026-09-29 19:33:05.960223744,-2.3341918945312496,0.24419238281249997,9.906549804687499,0.007456851052221867,-0.03834951969714103,0.09587379924285258,1.37789675447345,12.870664776501476,308.534795879781
2026-09-29 19:33:05.960223744,-2.31982763671875,0.17476513671875,9.940066406249999,0.010652644360316953,-0.03621899082507764,0.0916127414987258,1.396710906136196,12.84859636133545,308.5887121568816
2026-09-29 19:33:05.960223744,-2.3868608398437496,0.19152343749999998,9.923308105468749,0.014913702104443734,-0.03408846195301425,0.08735168375459901,1.416566674633554,12.828498902805153,308.63975166441
2026-09-29 19:33:05.960223744,-2.3772846679687496,0.21306982421874998,9.985553222656248,0.022370553156665602,-0.035153726389045944,0.08202536157444054,1.439373172740926,12.807740342155247,308.6882917852186
2026-09-29 19:33:05.991540992,-2.3174335937499997,0.24658642578124998,9.923308105468749,0.03302319751698255,-0.030892668644919165,0.07989483270237714,1.4675400402272292,12.788573605636207,308.73497846673496
2026-09-29 19:33:05.991540992,-2.2599765625,0.181947265625,9.90415576171875,0.04793689962142629,-0.02769687533682408,0.07669903939428206,1.5029816075056441,12.771371136027344,308.7795550418456
2026-09-29 19:33:05.991540992,-2.2264599609375,0.24179833984375,9.851486816406249,0.05645901510967985,-0.019174759848570515,0.07350324608618697,1.543992306475952,12.757802835275276,308.82254975177176
2026-09-29 19:33:06.024598016,-2.2982812499999996,0.25137451171874997,9.935278320312499,0.06178533728983833,-0.010652644360316953,0.0681769239060285,1.5885364287070407,12.74916566343571,308.86325619026843
2026-09-29 19:33:06.024598016,-2.35573828125,0.20588769531249998,9.901761718749999,0.0681769239060285,-0.007456851052221867,0.06285060172587002,1.637457989952041,12.74440643744543,308.90059588558813
2026-09-29 19:33:06.036250112,-2.2982812499999996,0.25137451171874997,9.8586689453125,0.049002164057457984,-0.017044230976507126,0.05326322180158476,1.6734802266797841,12.73603693218327,308.93216815183325
2026-09-29 19:33:06.036250112,-2.2575825195312498,0.24898046875,9.947248535156248,0.03728425526110934,-0.012783173232380343,0.04048004856920442,1.7025320494040463,12.727618011320521,308.9575347791671
2026-09-29 19:33:06.057316864,-2.30546337890625,0.20588769531249998,9.885003417968749,0.03834951969714103,-0.007456851052221867,0.03302319751698255,1.728846970568057,12.72174456910378,308.9779499980776
2026-09-29 19:33:06.065421312,-2.3078574218749996,0.22025195312499998,9.880215332031248,0.03621899082507764,-0.004261057744126781,0.02769687533682408,1.7541408242461713,12.718399566183262,308.9948606731736
2026-09-29 19:33:06.093112576,-2.288705078125,0.2824970703125,9.8778212890625,0.035153726389045944,0.0,0.024501082028728992,1.7777805005019134,12.717886117308819,309.009376470302
2026-09-29 19:33:06.102727424,-2.33897998046875,0.2537685546875,9.87542724609375,0.03302319751698255,0.0,0.023435817592697295,1.800424889297689,12.717997216369564,309.02306739110196
2026-09-29 19:33:06.109244416,-2.3365859374999998,0.24658642578124998,9.79402978515625,0.029827404208887468,0.0,0.019174759848570515,1.821070613308256,12.71831270485845,309.03515702950904
2026-09-29 19:33:06.143765760,-2.3030693359375,0.30404345703124996,9.839516601562499,0.02024002428460221,0.0,0.012783173232380343,1.8368727150042738,12.718441292543481,309.0431759906486
2026-09-29 19:33:06.153493504,-2.2168837890625,0.3112255859375,9.815576171875,0.005326322180158476,0.0,0.0021305288720633907,1.8438364853385116,12.718391775082626,309.0463023404994
2026-09-29 19:33:06.174922240,-2.2815229492187497,0.2824970703125,9.796423828124999,-0.008522115488253563,0.007456851052221867,-0.007456851052221867,1.8395378568116776,12.722322978590425,309.0432824914416
2026-09-29 19:33:06.174922240,-2.2743408203124997,0.25616259765625,9.86106298828125,-0.021305288720633905,0.01384843766841204,-0.021305288720633905,1.825633517504777,12.731204134126356,309.0325216348684
2026-09-29 19:33:06.174922240,-2.2910991210937497,0.2154638671875,9.8443046875,-0.03302319751698255,0.017044230976507126,-0.03302319751698255,1.8029553861966399,12.74236807875823,309.0145942479313
2026-09-29 19:33:06.174922240,-2.374890625,0.181947265625,9.868245117187499,-0.04261057744126781,0.022370553156665602,-0.043675841877299504,1.7728681039634082,12.756994888542064,308.9894894702178
2026-09-29 19:33:06.174922240,-2.4084072265625,0.17237109374999998,9.8443046875,-0.0458063707493629,0.022370553156665602,-0.054328486237616457,1.7381305208713478,12.773645895926636,308.95870530953914
2026-09-29 19:33:06.189042688,-2.4491059570312497,0.15321875,9.873033203124999,-0.043675841877299504,0.021305288720633905,-0.06285060172587002,1.7025328607074368,12.789482220914037,308.9221958532581
2026-09-29 19:33:06.199060224,-2.4395297851562496,0.14603662109374999,9.89457958984375,-0.04048004856920442,0.019174759848570515,-0.07350324608618697,1.6670151501617894,12.805020694394285,308.88004393984795
2026-09-29 19:33:06.199060224,-2.4586821289062497,0.13167236328124998,9.8586689453125,-0.03302319751698255,0.019174759848570515,-0.07989483270237714,1.6347830118113564,12.819862891707125,308.8334836525602
2026-09-29 19:33:06.204480512,-2.4682583007812497,0.16518896484374998,9.892185546875,-0.02769687533682408,0.014913702104443734,-0.08841694819063071,1.6047359096901634,12.833892273546324,308.782160887702
2026-09-29 19:33:06.262358528,-2.5089570312499996,0.17715917968749997,9.892185546875,-0.024501082028728992,0.011717908796348648,-0.0905474770626941,1.5766271864733943,12.845695919712345,308.72835075151556
2026-09-29 19:33:06.262358528,-2.47065234375,0.11012597656249999,9.851486816406249,-0.022370553156665602,0.009587379924285258,-0.09267800593475749,1.5495414240760141,12.856141479264272,308.6732616230866
2026-09-29 19:33:06.285992704,-2.4395297851562496,0.0909736328125,9.851486816406249,-0.012783173232380343,0.005326322180158476,-0.08948221262666241,1.5267462153476696,12.86390992474124,308.61952830383785
2026-09-29 19:33:06.301617664,-2.4371357421875,0.055062988281249996,9.873033203124999,0.0021305288720633907,0.006391586616190171,-0.08309062601047223,1.5126026688057121,12.871010767541684,308.56914844551795
2026-09-29 19:33:06.301617664,-2.47783447265625,0.05266894531249999,9.90894384765625,0.017044230976507126,0.0021305288720633907,-0.07563377495825037,1.507792916952304,12.876766611546657,308.5224050996663
2026-09-29 19:33:06.301617664,-2.5281093749999997,0.07421533203125,9.82754638671875,0.02876213977285577,-0.004261057744126781,-0.07030745277809189,1.5120371452245234,12.87840554447096,308.4793020103258
2026-09-29 19:33:06.301617664,-2.5472617187499997,-0.00239404296875,9.82275830078125,0.03408846195301425,-0.01810949541253882,-0.06391586616190172,1.5213692723781964,12.8733505941549,308.43947088341747
2026-09-29 19:33:06.301617664,-2.5089570312499996,-0.011970214843749999,9.86106298828125,0.02769687533682408,-0.03302319751698255,-0.05752427954571154,1.5287292090663192,12.860464754432279,308.4030302671033
2026-09-29 19:33:06.301617664,-2.4395297851562496,-0.00718212890625,9.8778212890625,0.022370553156665602,-0.04154531300523612,-0.05113269292952137,1.5333860976578249,12.840325293779898,308.37014408389973
2026-09-29 19:33:06.301617664,-2.4131953124999996,0.0143642578125,9.892185546875,0.008522115488253563,-0.044741106313331204,-0.04154531300523612,1.5328805822147662,12.817511000081122,308.34252785741467
2026-09-29 19:33:06.301617664,-2.3365859374999998,0.11252001953124999,9.9209140625,0.005326322180158476,-0.044741106313331204,-0.030892668644919165,1.5289913207563164,12.794060858393816,308.32030360543996
2026-09-29 19:33:06.317243904,-2.3078574218749996,0.15561279296875,9.8873974609375,0.025566346464760685,-0.03302319751698255,-0.012783173232380343,1.537451369971795,12.77419610152285,308.30843408214747
2026-09-29 19:33:06.337737728,-2.3509501953124996,0.19152343749999998,9.9544306640625,0.04261057744126781,-0.023435817592697295,0.006391586616190171,1.559740707014676,12.759527099221978,308.30870627725255
2026-09-29 19:33:06.337737728,-2.3605263671874996,0.23461621093749999,9.8443046875,0.05006742849348968,-0.01810949541253882,0.022370553156665602,1.5898831103775337,12.748927617482163,308.3191875129748
2026-09-29 19:33:06.349164288,-2.42037744140625,0.21785791015624997,9.87542724609375,0.05006742849348968,-0.014913702104443734,0.03728425526110934,1.62356542914575,12.740919796597632,308.33886942044086
2026-09-29 19:33:06.349164288,-2.4419238281249998,0.17715917968749997,9.815576171875,0.03834951969714103,-0.014913702104443734,0.043675841877299504,1.6531163789416332,12.734183387701654,308.3634897143766
2026-09-29 19:33:06.365224192,-2.5209272460937497,0.1149140625,9.8107880859375,0.03728425526110934,-0.02024002428460221,0.043675841877299504,1.6794110788337142,12.725436696746035,308.38881681648706
2026-09-29 19:33:06.381090560,-2.51613916015625,0.10773193359375,9.885003417968749,0.05539375067364816,-0.029827404208887468,0.03408846195301425,1.7111696970100612,12.711742512875798,308.40947208951405
2026-09-29 19:33:06.405000704,-2.4850166015624997,0.08618554687499999,9.9209140625,0.09906959255094766,-0.04261057744126781,0.019174759848570515,1.7635505099181226,12.691022789788287,308.42173164693304
2026-09-29 19:33:06.405000704,-2.47783447265625,0.17955322265624998,9.901761718749999,0.12357067457967666,-0.05006742849348968,0.0010652644360316954,1.8308323053985345,12.665688592993058,308.4231619861066
2026-09-29 19:33:06.412510208,-2.461076171875,0.25137451171874997,9.89936767578125,0.1310275256318985,-0.06498113059793341,-0.017044230976507126,1.9027473852435932,12.633407151911474,308.4132238513142
2026-09-29 19:33:06.412510208,-2.4179833984375,0.335166015625,9.825152343749998,0.12783173232380343,-0.07350324608618697,-0.03195793308095086,1.9730459862906355,12.595780791089679,308.39385695013056
2026-09-29 19:33:06.428273664,-2.38207275390625,0.37586474609375,9.839516601562499,0.11824435239951818,-0.08096009713840883,-0.04154531300523612,2.038539713922664,12.553297307283712,308.36857237958776
2026-09-29 19:33:06.444355072,-2.3126455078125,0.3878349609375,9.846698730468749,0.10546117916713783,-0.08522115488253562,-0.04687163518539459,2.0961069848613896,12.507908821100857,308.33944072867547
2026-09-29 19:33:06.450151680,-2.26237060546875,0.4165634765625,9.79402978515625,0.08948221262666241,-0.08735168375459901,-0.05006742849348968,2.144124772900151,12.459898699254133,308.3080195686338
2026-09-29 19:33:06.475788800,-2.16182080078125,0.41177539062499996,9.76051318359375,0.07776430383031376,-0.08415589044650393,-0.04687163518539459,2.185781207175839,12.413073674413681,308.27788356638143
2026-09-29 19:33:06.507038208,-2.16182080078125,0.40459326171875,9.806,0.07989483270237714,-0.08096009713840883,-0.039414784133172724,2.2267961943840655,12.366973660771889,308.25087403829417
2026-09-29 19:33:06.522835456,-2.1498505859374997,0.42613964843749996,9.7724833984375,0.08415589044650393,-0.07669903939428206,-0.030892668644919165,2.270237445942005,12.323027470870185,308.2285313697007
2026-09-29 19:33:06.538465792,-2.12830419921875,0.42853369140625,9.8873974609375,0.08841694819063071,-0.07030745277809189,-0.019174759848570515,2.318997249764921,12.282159749948574,308.21354392685623
2026-09-29 19:33:06.569716224,-2.1067578124999997,0.42613964843749996,9.87542724609375,0.08841694819063071,-0.06391586616190172,-0.006391586616190171,2.3699001696468054,12.244011415797617,308.20613203425614
2026-09-29 19:33:06.585340928,-2.0708471679687497,0.43571582031249995,9.901761718749999,0.08202536157444054,-0.05752427954571154,0.004261057744126781,2.4186621755938478,12.20891320513967,308.2056504151915
2026-09-29 19:33:06.585340928,-2.1211220703125,0.42374560546874995,9.8490927734375,0.07137271721412358,-0.0458063707493629,0.017044230976507126,2.4637951965486087,12.179333754718252,308.2129414000197
2026-09-29 19:33:06.600965376,-2.07563525390625,0.40698730468749994,9.89457958984375,0.06285060172587002,-0.04048004856920442,0.02769687533682408,2.504995428019964,12.154122820461142,308.22685082104636
2026-09-29 19:33:06.600965376,-2.0732412109375,0.44050390624999997,9.940066406249999,0.054328486237616457,-0.029827404208887468,0.035153726389045944,2.5421009528421137,12.133655809177537,308.2459017346795
2026-09-29 19:33:06.600965376,-2.08521142578125,0.43810986328124996,9.863457031249999,0.04793689962142629,-0.019174759848570515,0.04154531300523612,2.576376008736385,12.119011828831617,308.26902300665813
2026-09-29 19:33:06.600965376,-2.11872802734375,0.39741113281249996,9.956824707031249,0.04048004856920442,-0.011717908796348648,0.043675841877299504,2.6076881750997787,12.109454854598452,308.29452146149504
2026-09-29 19:33:06.616590848,-2.1235161132812497,0.44050390624999997,9.882609375,0.02769687533682408,-0.008522115488253563,0.044741106313331204,2.6313859514607123,12.102226959995901,308.3203480824946
2026-09-29 19:33:06.616590848,-2.15224462890625,0.45486816406249997,9.987947265625,0.02663161090079238,-0.0031957933080950856,0.049002164057457984,2.6534935905074346,12.097828353363967,308.34796486509407
2026-09-29 19:33:06.624898560,-2.14745654296875,0.4452919921875,9.944854492187499,0.029827404208887468,0.0021305288720633907,0.05539375067364816,2.677682380804084,12.096837088824865,308.37920578338037
2026-09-29 19:33:06.632403456,-2.14745654296875,0.42613964843749996,9.9975234375,0.03302319751698255,0.005326322180158476,0.06072007285380663,2.704151643427288,12.097950642126857,308.41421514865266
2026-09-29 19:33:06.632403456,-2.1666088867187496,0.46205029296874994,9.90415576171875,0.035153726389045944,0.008522115488253563,0.06285060172587002,2.731736613448545,12.100895547917126,308.4508563230173
2026-09-29 19:33:06.648032768,-2.154638671875,0.48599072265625,9.9831591796875,0.03834951969714103,0.008522115488253563,0.0660463950339651,2.7619938289886172,12.10495432368618,308.48949223907
2026-09-29 19:33:06.648032768,-2.12591015625,0.48599072265625,9.9209140625,0.043675841877299504,0.009587379924285258,0.06285060172587002,2.795069807553287,12.108673769796287,308.5271872831582
2026-09-29 19:33:06.648032768,-2.1450625,0.53865966796875,9.96640087890625,0.039414784133172724,0.010652644360316953,0.059654808417774936,2.826755123970027,12.11305060598147,308.5630895983088
2026-09-29 19:33:06.663658240,-2.17139697265625,0.5506298828124999,9.928096191406249,0.029827404208887468,0.014913702104443734,0.05219795736555307,2.8531966183688016,12.119717506647822,308.5954455766028
2026-09-29 19:33:06.663658240,-2.12591015625,0.54344775390625,9.961612792968749,0.014913702104443734,0.01597896654047543,0.044741106313331204,2.8706339292577514,12.127830671783762,308.6232182545158
2026-09-29 19:33:06.663658240,-2.1330922851562497,0.5602060546875,9.856274902343749,-0.0031957933080950856,0.017044230976507126,0.035153726389045944,2.877037293131617,12.13700041098346,308.64572010961956
2026-09-29 19:33:06.679284992,-2.15224462890625,0.5027490234374999,9.8873974609375,-0.019174759848570515,0.02024002428460221,0.022370553156665602,2.8718322157158016,12.148717376843896,308.66151232685223
2026-09-29 19:33:06.694908672,-2.17139697265625,0.51950732421875,9.86106298828125,-0.03195793308095086,0.022370553156665602,0.010652644360316953,2.856271776069235,12.162186316760481,308.67012791202455
2026-09-29 19:33:06.726159360,-2.18097314453125,0.5219013671874999,9.8586689453125,-0.03728425526110934,0.024501082028728992,-0.0010652644360316954,2.8355294044352517,12.176832315408646,308.6715957435706
2026-09-29 19:33:06.726159360,-2.2264599609375,0.55781201171875,9.90415576171875,-0.039414784133172724,0.02663161090079238,-0.012783173232380343,2.8114386314006876,12.193625201960256,308.665958804192
2026-09-29 19:33:06.742270464,-2.1690029296874997,0.53387158203125,9.882609375,-0.04154531300523612,0.025566346464760685,-0.024501082028728992,2.7850450205654504,12.210410692695493,308.6538152194371
2026-09-29 19:33:06.757900544,-2.25279443359375,0.4835966796875,9.829940429687499,-0.039414784133172724,0.025566346464760685,-0.03195793308095086,2.7582757518533674,12.227741635570673,308.6366393260874
2026-09-29 19:33:06.757900544,-2.250400390625,0.5266894531249999,9.87063916015625,-0.04154531300523612,0.023435817592697295,-0.03728425526110934,2.7300987365382525,12.244585641146942,308.615888077927
2026-09-29 19:33:06.789511168,-2.23364208984375,0.49556689453124997,9.928096191406249,-0.04048004856920442,0.019174759848570515,-0.04261057744126781,2.7012140798617077,12.259773531001292,308.591682317688
2026-09-29 19:33:06.789511168,-2.2216718749999997,0.47402050781249994,9.78924169921875,-0.04261057744126781,0.01810949541253882,-0.04793689962142629,2.6709410448546134,12.273060051921926,308.5645535728056
2026-09-29 19:33:06.789511168,-2.2360361328125,0.44289794921875,9.913731933593748,-0.0458063707493629,0.01810949541253882,-0.054328486237616457,2.6378482604975284,12.286978821668757,308.53364717901275
2026-09-29 19:33:06.789511168,-2.288705078125,0.42853369140625,9.86585107421875,-0.04793689962142629,0.01810949541253882,-0.05752427954571154,2.603245047206085,12.300513728894362,308.50050809133046
2026-09-29 19:33:06.789511168,-2.2480063476562497,0.41177539062499996,9.82754638671875,-0.054328486237616457,0.019174759848570515,-0.0660463950339651,2.5641141845453808,12.31530970644794,308.4629682223318
2026-09-29 19:33:06.805137664,-2.2551884765624997,0.34474218749999996,9.8586689453125,-0.05645901510967985,0.022370553156665602,-0.07137271721412358,2.5221718396301482,12.33123611655821,308.4219861997244
2026-09-29 19:33:06.820761088,-2.269552734375,0.3064375,9.856274902343749,-0.05326322180158476,0.025566346464760685,-0.07243798165015528,2.479917593910794,12.34870753882437,308.3790742071818
2026-09-29 19:33:06.820761088,-2.2480063476562497,0.29925537109375,9.8490927734375,-0.0458063707493629,0.02769687533682408,-0.07456851052221868,2.4416066052028715,12.367505008047466,308.3352508616801
2026-09-29 19:33:06.867642880,-2.3126455078125,0.26573876953125,9.889791503906249,-0.04261057744126781,0.02876213977285577,-0.07456851052221868,2.405231074163725,12.387991117613357,308.2913706482001
2026-09-29 19:33:06.867642880,-2.3174335937499997,0.24658642578124998,9.95921875,-0.03621899082507764,0.02769687533682408,-0.07456851052221868,2.3718895140192444,12.408395761910652,308.2474619299096
2026-09-29 19:33:06.899235328,-2.3126455078125,0.258556640625,9.923308105468749,-0.02769687533682408,0.024501082028728992,-0.07243798165015528,2.34324205354356,12.426795402376404,308.20468517147464
2026-09-29 19:33:06.899235328,-2.3605263671874996,0.24658642578124998,9.98076513671875,-0.022370553156665602,0.022370553156665602,-0.07350324608618697,2.3186103048994933,12.444402089379084,308.16156438804785
2026-09-29 19:33:06.915305984,-2.31503955078125,0.28010302734375,9.9544306640625,-0.02024002428460221,0.02024002428460221,-0.07243798165015528,2.295296540955152,12.460890424940084,308.11834388740886
2026-09-29 19:33:06.915305984,-2.33897998046875,0.23222216796874998,9.873033203124999,-0.019174759848570515,0.02024002428460221,-0.07350324608618697,2.2729730720411663,12.475961594889316,308.0751635537116
2026-09-29 19:33:06.915305984,-2.34855615234375,0.25616259765625,9.873033203124999,-0.02024002428460221,0.017044230976507126,-0.07456851052221868,2.249728057369107,12.490524445933293,308.0312795363572
2026-09-29 19:33:06.915305984,-2.3413740234375,0.24898046875,9.8778212890625,-0.017044230976507126,0.01597896654047543,-0.07243798165015528,2.2276591424897005,12.503959079560431,307.9882930427571
2026-09-29 19:33:06.915305984,-2.2910991210937497,0.22264599609375,9.880215332031248,-0.011717908796348648,0.01597896654047543,-0.06711165946999681,2.2090755573331124,12.517246361862142,307.94749168158546
2026-09-29 19:33:06.939446528,-2.2982812499999996,0.21306982421874998,9.868245117187499,-0.007456851052221867,0.019174759848570515,-0.06178533728983833,2.193557500484093,12.531163541620893,307.9094807950457
2026-09-29 19:33:06.962540032,-2.31503955078125,0.23701025390624997,9.87063916015625,0.0,0.02663161090079238,-0.05858954398174324,2.182967874169064,12.547885587903481,307.87403789986735
2026-09-29 19:33:06.962540032,-2.3270097656249997,0.23461621093749999,9.89457958984375,0.010652644360316953,0.03195793308095086,-0.054328486237616457,2.1804545443545074,12.56823896977982,307.8413286488615
2026-09-29 19:33:06.962540032,-2.3964370117187497,0.25616259765625,9.882609375,0.008522115488253563,0.035153726389045944,-0.05539375067364816,2.179114030133711,12.591455957805215,307.80906260030713
2026-09-29 19:33:06.986648832,-2.4299536132812496,0.31601367187499996,9.83712255859375,-0.0010652644360316954,0.030892668644919165,-0.05539375067364816,2.171759640031818,12.613471040813685,307.77712167313166
2026-09-29 19:33:06.986648832,-2.4754404296874997,0.27531494140624996,9.880215332031248,-0.011717908796348648,0.024501082028728992,-0.054328486237616457,2.1577364119795,12.632997327124688,307.74477629030264
2026-09-29 19:33:06.986648832,-2.45389404296875,0.21785791015624997,9.901761718749999,-0.019174759848570515,0.01810949541253882,-0.05219795736555307,2.1382119041199843,12.649165302465953,307.7131271632087
2026-09-29 19:33:06.986648832,-2.4227714843749997,0.201099609375,9.947248535156248,-0.012783173232380343,0.010652644360316953,-0.04687163518539459,2.1205197893787253,12.66041300397825,307.6836881262363
2026-09-29 19:33:07.010283776,-2.4419238281249998,0.16997705078124997,9.841910644531248,0.0,0.0031957933080950856,-0.04154531300523612,2.1105031777787695,12.666741451962471,307.6577963065628
2026-09-29 19:33:07.010283776,-2.49698681640625,0.18434130859374998,9.901761718749999,0.011717908796348648,-0.0021305288720633907,-0.029827404208887468,2.1103873646781843,12.669338108265379,307.6373586952992
2026-09-29 19:33:07.041534720,-2.42516552734375,0.19152343749999998,9.8778212890625,0.023435817592697295,-0.005326322180158476,-0.02024002428460221,2.1184397575072063,12.669968111842307,307.62281663635474
2026-09-29 19:33:07.057157376,-2.3629204101562498,0.229828125,9.8443046875,0.030892668644919165,-0.009587379924285258,-0.009587379924285258,2.1322786044535498,12.667491865679315,307.61410437780665
2026-09-29 19:33:07.057157376,-2.3270097656249997,0.22264599609375,9.846698730468749,0.039414784133172724,-0.009587379924285258,-0.0021305288720633907,2.1524843446787507,12.663482591843481,307.6101570189982
2026-09-29 19:33:07.057157376,-2.3437680664062497,0.29207324218749997,9.82275830078125,0.03834951969714103,-0.009587379924285258,0.005326322180158476,2.174840646822726,12.65854242137789,307.6115142600445
2026-09-29 19:33:07.057157376,-2.384466796875,0.29207324218749997,9.89457958984375,0.03621899082507764,-0.010652644360316953,0.010652644360316953,2.197229440264711,12.653695742380165,307.6167142574252
2026-09-29 19:33:07.057157376,-2.3341918945312496,0.34234814453124995,9.80360595703125,0.030892668644919165,-0.014913702104443734,0.01597896654047543,2.2173420461235716,12.646835120708243,307.62497702506994
2026-09-29 19:33:07.073171968,-2.3174335937499997,0.296861328125,9.913731933593748,0.02769687533682408,-0.01810949541253882,0.019174759848570515,2.2366113668105982,12.637711259997774,307.63510222998843
2026-09-29 19:33:07.088927744,-2.27673486328125,0.32798388671874995,9.839516601562499,0.02663161090079238,-0.019174759848570515,0.022370553156665602,2.2548944875404633,12.627049547920572,307.6472566427317
2026-09-29 19:33:07.120193792,-2.2599765625,0.31601367187499996,9.86585107421875,0.025566346464760685,-0.017044230976507126,0.023435817592697295,2.2727744624660247,12.61681455731794,307.6604358754448
2026-09-29 19:33:07.136146944,-2.3030693359375,0.3112255859375,9.94246044921875,0.02769687533682408,-0.01597896654047543,0.023435817592697295,2.2916814130454326,12.606880803850288,307.6736598434448
2026-09-29 19:33:07.136146944,-2.27912890625,0.335166015625,9.880215332031248,0.025566346464760685,-0.01810949541253882,0.022370553156665602,2.309975534686913,12.59691293996905,307.6859087451356
2026-09-29 19:33:07.136146944,-2.3006752929687497,0.35192431640625,9.815576171875,0.025566346464760685,-0.01597896654047543,0.01810949541253882,2.3278647818919764,12.587748017302797,307.69666899411305
2026-09-29 19:33:07.136146944,-2.26237060546875,0.34234814453124995,9.86106298828125,0.025566346464760685,-0.014913702104443734,0.01597896654047543,2.345058251786028,12.579113085787643,307.70586540301935
2026-09-29 19:33:07.136146944,-2.25279443359375,0.27052685546875,9.882609375,0.025566346464760685,-0.014913702104443734,0.010652644360316953,2.361146444601767,12.570373063271365,307.7122187907207
2026-09-29 19:33:07.151781120,-2.2456123046874996,0.35910644531249997,9.906549804687499,0.02876213977285577,-0.012783173232380343,0.006391586616190171,2.3781195478575983,12.56249016750836,307.71602002635075
2026-09-29 19:33:07.167771904,-2.2480063476562497,0.33037792968749996,9.8586689453125,0.03408846195301425,-0.008522115488253563,0.0021305288720633907,2.3971607940267305,12.556677655044105,307.7175097816815
2026-09-29 19:33:07.199599104,-2.2216718749999997,0.32319580078125,9.918520019531249,0.03302319751698255,-0.005326322180158476,-0.0021305288720633907,2.4159933130516578,12.553043475191977,307.7165139680228
2026-09-29 19:33:07.199599104,-2.250400390625,0.3208017578125,9.885003417968749,0.03195793308095086,0.0021305288720633907,-0.008522115488253563,2.4333063889024857,12.553652550077091,307.7119244239851
2026-09-29 19:33:07.215232768,-2.26237060546875,0.32319580078125,9.8778212890625,0.029827404208887468,0.008522115488253563,-0.011717908796348648,2.4488392078674486,12.55903515711579,307.70479149740737
2026-09-29 19:33:07.215232768,-2.26715869140625,0.31361962890624995,9.868245117187499,0.02876213977285577,0.014913702104443734,-0.01810949541253882,2.462169032514964,12.567989255277835,307.694300052891
2026-09-29 19:33:07.246483456,-2.3270097656249997,0.24658642578124998,9.87542724609375,0.03195793308095086,0.01810949541253882,-0.025566346464760685,2.4759206023572933,12.579654809677624,307.6801016156694
2026-09-29 19:33:07.246483456,-2.3270097656249997,0.22504003906249997,9.868245117187499,0.039414784133172724,0.019174759848570515,-0.03302319751698255,2.491958402137449,12.59301967983271,307.6614122471604
2026-09-29 19:33:07.277764096,-2.3964370117187497,0.19870556640624998,9.8443046875,0.05219795736555307,0.019174759848570515,-0.04154531300523612,2.513093671414911,12.606545511206473,307.63796396029045
2026-09-29 19:33:07.309574144,-2.39164892578125,0.21306982421874998,9.873033203124999,0.06391586616190172,0.011717908796348648,-0.05113269292952137,2.539889752700254,12.617810901210479,307.6087496206016
2026-09-29 19:33:07.313307904,-2.4275595703125,0.28010302734375,9.89457958984375,0.07563377495825037,0.0021305288720633907,-0.06178533728983833,2.572611078338695,12.624238176806319,307.5734090937017
2026-09-29 19:33:07.313307904,-2.42037744140625,0.36389453125,9.940066406249999,0.08522115488253562,-0.006391586616190171,-0.07137271721412358,2.6105397134024066,12.625525176981878,307.53138536858114
2026-09-29 19:33:07.317783552,-2.39404296875,0.37347070312499997,9.841910644531248,0.08841694819063071,-0.011717908796348648,-0.08096009713840883,2.650759466709095,12.622912805977728,307.4843239815471
2026-09-29 19:33:07.317783552,-2.3964370117187497,0.45726220703125,9.885003417968749,0.08628641931856731,-0.01597896654047543,-0.08948221262666241,2.689518180492935,12.617984939500422,307.4319055079914
2026-09-29 19:33:07.317783552,-2.3533442382812497,0.4835966796875,9.82754638671875,0.07882956826634545,-0.021305288720633905,-0.09587379924285258,2.7246089659004036,12.610834098531855,307.37513735624225
2026-09-29 19:33:07.317783552,-2.3605263671874996,0.49556689453124997,9.808394042968748,0.07030745277809189,-0.022370553156665602,-0.10226538585904274,2.754631744216224,12.60198394814636,307.3146164116181
2026-09-29 19:33:07.317783552,-2.3270097656249997,0.5219013671874999,9.885003417968749,0.0660463950339651,-0.025566346464760685,-0.10759170803920122,2.7807701120570636,12.592103308137084,307.25094307957505
2026-09-29 19:33:07.325289472,-2.3102514648437498,0.536265625,9.885003417968749,0.059654808417774936,-0.025566346464760685,-0.10759170803920122,2.803575191345536,12.580948670413083,307.1866314115399
2026-09-29 19:33:07.340919296,-2.2934931640625,0.5314775390625,9.8778212890625,0.05219795736555307,-0.025566346464760685,-0.10865697247523291,2.822470504702769,12.569658561010986,307.1220157012605
2026-09-29 19:33:07.403419392,-2.2192778320312496,0.5697822265625,9.851486816406249,0.0458063707493629,-0.024501082028728992,-0.10759170803920122,2.8376701042026227,12.559254582400126,307.0574476839935
2026-09-29 19:33:07.403419392,-2.22406591796875,0.57217626953125,9.8586689453125,0.04048004856920442,-0.019174759848570515,-0.10439591473110614,2.8501081624234845,12.550626435471795,306.9946784649471
2026-09-29 19:33:07.403419392,-2.2599765625,0.53865966796875,9.856274902343749,0.03302319751698255,-0.011717908796348648,-0.09693906367888427,2.859577051799948,12.546432925786988,306.93583598494735
2026-09-29 19:33:07.403419392,-2.2743408203124997,0.5817524414062499,9.930490234374998,0.024501082028728992,-0.007456851052221867,-0.08948221262666241,2.8648298168133035,12.544328238545353,306.88112417592134
2026-09-29 19:33:07.403419392,-2.25279443359375,0.5530239257812499,9.8203642578125,0.01597896654047543,-0.0031957933080950856,-0.08096009713840883,2.866919358428341,12.544453800132326,306.8318965554472
2026-09-29 19:33:07.403419392,-2.2647646484374997,0.564994140625,9.86106298828125,0.008522115488253563,0.0010652644360316954,-0.07137271721412358,2.865028576041257,12.547203774140064,306.78782551030486
2026-09-29 19:33:07.403419392,-2.26715869140625,0.59132861328125,9.89457958984375,0.0,0.004261057744126781,-0.06178533728983833,2.8592349615229176,12.551864864712858,306.74979039028676
2026-09-29 19:33:07.419045120,-2.3078574218749996,0.6080869140624999,9.8586689453125,-0.008522115488253563,0.004261057744126781,-0.05326322180158476,2.849320419067945,12.557136910269174,306.71685769776235
2026-09-29 19:33:07.434670592,-2.26237060546875,0.6080869140624999,9.853880859375,-0.02024002428460221,0.006391586616190171,-0.043675841877299504,2.834326102845619,12.564095529344854,306.6899396351998
2026-09-29 19:33:07.481939456,-2.2839169921874998,0.564994140625,9.851486816406249,-0.03195793308095086,0.009587379924285258,-0.03408846195301425,2.813465810713556,12.571867203009848,306.66803792400896
2026-09-29 19:33:07.513475328,-2.2910991210937497,0.50993115234375,9.813182128906249,-0.039414784133172724,0.007456851052221867,-0.02769687533682408,2.788155348578429,12.579100884431776,306.65043006360844
2026-09-29 19:33:07.513475328,-2.34855615234375,0.47641455078124995,9.906549804687499,-0.043675841877299504,0.008522115488253563,-0.01810949541253882,2.7605961392960006,12.586517171627966,306.6383637080658
2026-09-29 19:33:07.513475328,-2.3605263671874996,0.44289794921875,9.896973632812498,-0.044741106313331204,0.006391586616190171,-0.011717908796348648,2.7323419855641404,12.593005210183565,306.63016731474556
2026-09-29 19:33:07.513475328,-2.3437680664062497,0.42374560546874995,9.846698730468749,-0.044741106313331204,0.005326322180158476,-0.004261057744126781,2.704737501041629,12.598945071144477,306.6262468569613
2026-09-29 19:33:07.519678208,-2.35573828125,0.39501708984374995,9.839516601562499,-0.04261057744126781,0.006391586616190171,0.0010652644360316954,2.6786759446244273,12.604186268328863,306.625719571103
2026-09-29 19:33:07.519678208,-2.365314453125,0.35910644531249997,9.9161259765625,-0.04048004856920442,0.0031957933080950856,0.008522115488253563,2.654362541737416,12.608917988282979,306.62914557455895
2026-09-29 19:33:07.519678208,-2.3533442382812497,0.35910644531249997,9.882609375,-0.03621899082507764,0.0010652644360316954,0.010652644360316953,2.6326473206992387,12.611956024468,306.63498236732346
2026-09-29 19:33:07.519678208,-2.3701025390624997,0.35431835937499995,9.882609375,-0.035153726389045944,-0.0031957933080950856,0.012783173232380343,2.6129616655517323,12.612587899563703,306.64195674668787
2026-09-29 19:33:07.529185024,-2.3605263671874996,0.32798388671874995,9.8203642578125,-0.029827404208887468,-0.007456851052221867,0.014913702104443734,2.5959672106800755,12.610420245603931,306.6501071486139
2026-09-29 19:33:07.544816640,-2.3437680664062497,0.34713623046875,9.806,-0.03195793308095086,-0.009587379924285258,0.019174759848570515,2.578544922020175,12.606698327536035,306.660247288269
2026-09-29 19:33:07.544816640,-2.30546337890625,0.32798388671874995,9.8107880859375,-0.02876213977285577,-0.010652644360316953,0.022370553156665602,2.563226448770763,12.60128475293724,306.67261107697
2026-09-29 19:33:07.592537088,-2.2815229492187497,0.3112255859375,9.87063916015625,-0.023435817592697295,-0.007456851052221867,0.025566346464760685,2.550488753428552,12.596990386916593,306.6865609650066
2026-09-29 19:33:07.592537088,-2.231248046875,0.37586474609375,9.841910644531248,-0.01597896654047543,-0.0031957933080950856,0.02876213977285577,2.5428591886176486,12.594658475124309,306.7031138585126
2026-09-29 19:33:07.607811584,-2.3102514648437498,0.37347070312499997,9.9257021484375,-0.007456851052221867,0.0021305288720633907,0.03302319751698255,2.540655336566518,12.595554014757854,306.7217823346104
2026-09-29 19:33:07.607811584,-2.3341918945312496,0.48120263671874997,9.940066406249999,-0.011717908796348648,0.0031957933080950856,0.029827404208887468,2.5381314398184354,12.598448803665232,306.73998521703163
2026-09-29 19:33:07.639069952,-2.3270097656249997,0.48120263671874997,9.949642578125,-0.024501082028728992,0.0031957933080950856,0.02769687533682408,2.52983418037752,12.60173056105357,306.7570695101412
2026-09-29 19:33:07.654694656,-2.35573828125,0.46444433593749995,9.93288427734375,-0.043675841877299504,0.0021305288720633907,0.024501082028728992,2.510303360797792,12.604241390623018,306.7716265059645
2026-09-29 19:33:07.701569024,-2.4036191406249996,0.39501708984374995,9.880215332031248,-0.059654808417774936,-0.0021305288720633907,0.023435817592697295,2.481028753791144,12.604668641327812,306.7854220911089
2026-09-29 19:33:07.701569024,-2.38207275390625,0.31840771484374997,9.896973632812498,-0.06178533728983833,-0.005326322180158476,0.021305288720633905,2.447369737684133,12.603871179778235,306.79802454126855
2026-09-29 19:33:07.701569024,-2.3365859374999998,0.26334472656249996,9.880215332031248,-0.054328486237616457,-0.009587379924285258,0.025566346464760685,2.416223753942331,12.599962283754294,306.81188500777995
2026-09-29 19:33:07.701569024,-2.3772846679687496,0.24179833984375,9.8778212890625,-0.04154531300523612,-0.011717908796348648,0.02769687533682408,2.3923276207041817,12.594142471058614,306.8274550561674
2026-09-29 19:33:07.732819200,-2.3365859374999998,0.20349365234374997,9.901761718749999,-0.02663161090079238,-0.01384843766841204,0.02876213977285577,2.376351643182604,12.587489588624004,306.84358264130407
2026-09-29 19:33:07.732819200,-2.346162109375,0.25137451171874997,9.806,-0.019174759848570515,-0.01384843766841204,0.030892668644919165,2.366054476441598,12.580439103515534,306.86093078368026
2026-09-29 19:33:07.732819200,-2.3509501953124996,0.22264599609375,9.82754638671875,-0.009587379924285258,-0.01597896654047543,0.03195793308095086,2.3614447064544644,12.572487389150231,306.8792450877705
2026-09-29 19:33:07.732819200,-2.3413740234375,0.24898046875,9.89457958984375,-0.004261057744126781,-0.019174759848570515,0.03302319751698255,2.359840561241311,12.56270774235304,306.89747639022875
2026-09-29 19:33:07.732819200,-2.3437680664062497,0.2681328125,9.94246044921875,0.0,-0.022370553156665602,0.03195793308095086,2.361402264983025,12.551395181227164,306.9153740966558
2026-09-29 19:33:07.732819200,-2.3102514648437498,0.258556640625,9.882609375,0.004261057744126781,-0.02663161090079238,0.030892668644919165,2.3664450287681746,12.536873003897794,306.93287785503696
2026-09-29 19:33:07.748444416,-2.25279443359375,0.31361962890624995,9.95921875,0.005326322180158476,-0.03195793308095086,0.03195793308095086,2.3730485637343626,12.519135655414118,306.95026482581045
2026-09-29 19:33:07.748444416,-2.2480063476562497,0.36628857421875,9.90894384765625,0.006391586616190171,-0.035153726389045944,0.030892668644919165,2.380603191440249,12.499095203879978,306.9670543157391
2026-09-29 19:33:07.748444416,-2.250400390625,0.33995410156249994,9.880215332031248,0.007456851052221867,-0.035153726389045944,0.03195793308095086,2.3889573566157996,12.47837866571195,306.9848165865518
2026-09-29 19:33:07.748444416,-2.2168837890625,0.38544091796874996,9.930490234374998,0.005326322180158476,-0.03834951969714103,0.03408846195301425,2.3968957331759806,12.455987705407084,307.0031512861213
2026-09-29 19:33:07.748444416,-2.17139697265625,0.40698730468749994,9.906549804687499,0.005326322180158476,-0.03728425526110934,0.03408846195301425,2.405109977641804,12.433147594328458,307.02213806573116
2026-09-29 19:33:07.764070400,-2.1330922851562497,0.38304687499999995,9.829940429687499,0.0021305288720633907,-0.030892668644919165,0.035153726389045944,2.412195070781437,12.412881211411904,307.0413200158548
2026-09-29 19:33:07.826974720,-2.1235161132812497,0.39022900390625,9.8443046875,0.0,-0.025566346464760685,0.03302319751698255,2.4176696118959144,12.395834370554041,307.0602439935767
2026-09-29 19:33:07.826974720,-2.1235161132812497,0.36628857421875,9.880215332031248,0.0,-0.02024002428460221,0.03195793308095086,2.4224278953800837,12.381951563781033,307.0786991254351
2026-09-29 19:33:07.826974720,-2.16421484375,0.39741113281249996,9.8873974609375,0.0031957933080950856,-0.012783173232380343,0.030892668644919165,2.42816327329598,12.372139360249928,307.0963715707218
2026-09-29 19:33:07.858543616,-2.1163339843749998,0.35910644531249997,9.80360595703125,0.006391586616190171,-0.006391586616190171,0.02876213977285577,2.4362508950394717,12.366333207299267,307.11334763686625
2026-09-29 19:33:07.858543616,-2.1426684570312498,0.38544091796874996,9.947248535156248,0.008522115488253563,0.0,0.025566346464760685,2.4444012286338217,12.36436911925124,307.1288160697309
2026-09-29 19:33:07.858543616,-2.1857612304687497,0.44050390624999997,9.911337890625,0.008522115488253563,0.004261057744126781,0.021305288720633905,2.452603253765964,12.365436235974176,307.14197468182005
2026-09-29 19:33:07.858543616,-2.2264599609375,0.38544091796874996,9.8490927734375,0.004261057744126781,0.012783173232380343,0.01597896654047543,2.458974412719808,12.371061427754887,307.15232149346554
2026-09-29 19:33:07.874306048,-2.2839169921874998,0.392623046875,9.8490927734375,0.0,0.01384843766841204,0.006391586616190171,2.46024485466724,12.380529757177191,307.15802119379185
2026-09-29 19:33:07.874306048,-2.30546337890625,0.37107666015624996,9.8873974609375,-0.0021305288720633907,0.012783173232380343,0.0,2.458706870900191,12.390014824512814,307.1593035839498
2026-09-29 19:33:07.874306048,-2.3629204101562498,0.35431835937499995,9.90894384765625,0.0,0.009587379924285258,-0.004261057744126781,2.4569188490794334,12.398415960852002,307.1570088912899
2026-09-29 19:33:07.874306048,-2.365314453125,0.36150048828125,9.882609375,0.0010652644360316954,0.0031957933080950856,-0.009587379924285258,2.4561792010798293,12.404064505302658,307.1517252716571
2026-09-29 19:33:07.889937152,-2.36770849609375,0.40459326171875,9.86106298828125,0.0021305288720633907,0.0,-0.012783173232380343,2.4562369822114976,12.406128060477279,307.1438151625489
2026-09-29 19:33:07.905711872,-2.2719467773437496,0.39980517578124997,9.880215332031248,0.0031957933080950856,-0.004261057744126781,-0.01597896654047543,2.4569974147122218,12.406370525070907,307.13434653386224
2026-09-29 19:33:07.952591616,-2.346162109375,0.40698730468749994,9.851486816406249,0.0010652644360316954,-0.007456851052221867,-0.01597896654047543,2.4573412021323353,12.40379803567115,307.1241689473486
2026-09-29 19:33:07.963581952,-2.2910991210937497,0.40698730468749994,9.8778212890625,-0.0010652644360316954,-0.012783173232380343,-0.014913702104443734,2.455174124886577,12.399325519142675,307.1144697897559
2026-09-29 19:33:08.000276736,-2.3341918945312496,0.37107666015624996,9.913731933593748,-0.005326322180158476,-0.01597896654047543,-0.012783173232380343,2.450518939976676,12.392710545870468,307.10535825537545
2026-09-29 19:33:08.000276736,-2.3078574218749996,0.39022900390625,9.851486816406249,-0.008522115488253563,-0.01810949541253882,-0.007456851052221867,2.4443429115317947,12.384779704723565,307.09893062062054
2026-09-29 19:33:08.000276736,-2.2815229492187497,0.41177539062499996,9.90415576171875,-0.012783173232380343,-0.02024002428460221,-0.0031957933080950856,2.4365540426307613,12.375178058447842,307.0950135222435
2026-09-29 19:33:08.000276736,-2.2168837890625,0.41416943359374997,9.8586689453125,-0.01597896654047543,-0.02024002428460221,0.0031957933080950856,2.4281083471952045,12.36475545152192,307.09550626012043
2026-09-29 19:33:08.000276736,-2.2264599609375,0.40459326171875,9.889791503906249,-0.02024002428460221,-0.021305288720633905,0.010652644360316953,2.4181700654366587,12.353131088282879,307.1002832125956
2026-09-29 19:33:08.000276736,-2.2025195312499997,0.40219921875,9.8873974609375,-0.024501082028728992,-0.02024002428460221,0.02024002428460221,2.4068560808777684,12.341946676234867,307.11074185607686
2026-09-29 19:33:08.000276736,-2.16182080078125,0.36389453125,9.873033203124999,-0.030892668644919165,-0.01597896654047543,0.02769687533682408,2.3929941068871714,12.332279980327634,307.1256209662782
2026-09-29 19:33:08.000276736,-2.1666088867187496,0.36628857421875,9.8778212890625,-0.03621899082507764,-0.012783173232380343,0.03621899082507764,2.3763637669718443,12.324199707734913,307.1448856345364
2026-09-29 19:33:08.031235584,-2.1785791015625,0.33277197265624997,9.90415576171875,-0.04154531300523612,-0.007456851052221867,0.04154531300523612,2.3574815808153993,12.318546903826615,307.16800918436854
2026-09-29 19:33:08.031235584,-2.1977314453125,0.24419238281249997,9.87063916015625,-0.043675841877299504,0.0,0.04793689962142629,2.3369534030572328,12.31648826488763,307.19496039640836
2026-09-29 19:33:08.047153408,-2.21448974609375,0.23461621093749999,9.9257021484375,-0.039414784133172724,0.005326322180158476,0.05219795736555307,2.31767476946461,12.319203917114317,307.2244182768973
2026-09-29 19:33:08.047153408,-2.28631103515625,0.201099609375,9.90894384765625,-0.03302319751698255,0.007456851052221867,0.05539375067364816,2.3022721374259336,12.323676922803898,307.2564294763939
2026-09-29 19:33:08.094246400,-2.3365859374999998,0.181947265625,9.923308105468749,-0.02876213977285577,0.007456851052221867,0.059654808417774936,2.2894808958761774,12.329154121289692,307.2905732054434
2026-09-29 19:33:08.094246400,-2.29588720703125,0.2537685546875,9.882609375,-0.024501082028728992,0.0031957933080950856,0.06178533728983833,2.2799783887738547,12.33249723260249,307.32617289650716
2026-09-29 19:33:08.141140992,-2.3030693359375,0.23461621093749999,9.873033203124999,-0.021305288720633905,-0.0010652644360316954,0.06285060172587002,2.2736383662471495,12.332879927205662,307.36241562567835
2026-09-29 19:33:08.141140992,-2.3174335937499997,0.23222216796874998,9.868245117187499,-0.022370553156665602,-0.004261057744126781,0.06391586616190172,2.267823956050779,12.331337507383754,307.3995164102635
2026-09-29 19:33:08.141140992,-2.3006752929687497,0.229828125,9.885003417968749,-0.021305288720633905,-0.007456851052221867,0.0681769239060285,2.2619078848920506,12.327890480607163,307.4383660204542
2026-09-29 19:33:08.141140992,-2.31503955078125,0.26334472656249996,9.87063916015625,-0.02024002428460221,-0.010652644360316953,0.07030745277809189,2.256797801727193,12.322628814285553,307.47875388076966
2026-09-29 19:33:08.141140992,-2.2743408203124997,0.21785791015624997,9.90894384765625,-0.01597896654047543,-0.01384843766841204,0.07030745277809189,2.2545862409285164,12.315475814364389,307.51968845116966
2026-09-29 19:33:08.141140992,-2.2982812499999996,0.22025195312499998,9.9209140625,-0.009587379924285258,-0.017044230976507126,0.06711165946999681,2.254710652477122,12.30621718071718,307.55892252387093
2026-09-29 19:33:08.157245184,-2.2647646484374997,0.1963115234375,9.889791503906249,-0.0021305288720633907,-0.019174759848570515,0.06178533728983833,2.258224486520805,12.2957651340853,307.5949303583369
2026-09-29 19:33:08.157245184,-2.26715869140625,0.18434130859374998,9.89457958984375,0.006391586616190171,-0.017044230976507126,0.05539375067364816,2.2661309573041883,12.285647931240229,307.6271396566901
2026-09-29 19:33:08.157245184,-2.2743408203124997,0.19870556640624998,9.94246044921875,0.01597896654047543,-0.017044230976507126,0.0458063707493629,2.278701010817842,12.275885062547342,307.65435035504015
2026-09-29 19:33:08.157245184,-2.2647646484374997,0.22504003906249997,9.9161259765625,0.025566346464760685,-0.017044230976507126,0.03621899082507764,2.2959680768226614,12.265766397611625,307.67631235025004
2026-09-29 19:33:08.172906752,-2.24082421875,0.28010302734375,9.90415576171875,0.03302319751698255,-0.01597896654047543,0.02769687533682408,2.317085843953334,12.256657162054097,307.69307502449936
2026-09-29 19:33:08.172906752,-2.1857612304687497,0.3208017578125,9.839516601562499,0.03621899082507764,-0.01384843766841204,0.019174759848570515,2.3399872653580456,12.248695442853617,307.7049752287849
2026-09-29 19:33:08.188500992,-2.2168837890625,0.3495302734375,9.89936767578125,0.03728425526110934,-0.014913702104443734,0.01384843766841204,2.3632242129786265,12.240158282121712,307.7131489249419
2026-09-29 19:33:08.251619328,-2.15224462890625,0.335166015625,9.8586689453125,0.03621899082507764,-0.017044230976507126,0.007456851052221867,2.385470241168471,12.230200771715674,307.71791126830584
2026-09-29 19:33:08.251619328,-2.1115458984375,0.34474218749999996,9.935278320312499,0.039414784133172724,-0.01384843766841204,0.005326322180158476,2.4081560677128673,12.221001125166705,307.72081861664014
2026-09-29 19:33:08.298376704,-2.1211220703125,0.40219921875,9.9544306640625,0.04687163518539459,-0.005326322180158476,0.0031957933080950856,2.4347427380465443,12.215493524051519,307.7229905186747
2026-09-29 19:33:08.298376704,-2.1067578124999997,0.44289794921875,9.985553222656248,0.054328486237616457,0.004261057744126781,0.0010652644360316954,2.4655438619711068,12.215816351021758,307.7239644036603
2026-09-29 19:33:08.298376704,-2.0971816406249997,0.51950732421875,9.930490234374998,0.04687163518539459,0.011717908796348648,0.0,2.49508428358956,12.221859677094708,307.72404806879894
2026-09-29 19:33:08.298376704,-2.173791015625,0.54344775390625,9.961612792968749,0.03195793308095086,0.01810949541253882,-0.005326322180158476,2.516467672218533,12.231673492225227,307.7216138304858
2026-09-29 19:33:08.298376704,-2.2360361328125,0.5817524414062499,9.944854492187499,0.01384843766841204,0.022370553156665602,-0.007456851052221867,2.527390856206844,12.244706645839562,307.71749505280036
2026-09-29 19:33:08.298376704,-2.1953374023437497,0.51950732421875,10.01667578125,0.0,0.023435817592697295,-0.007456851052221867,2.5302639494919785,12.25898886121076,307.71344466656615
2026-09-29 19:33:08.298376704,-2.231248046875,0.46205029296874994,9.940066406249999,-0.004261057744126781,0.023435817592697295,-0.004261057744126781,2.5285912210162538,12.273815371354178,307.71056783329584
2026-09-29 19:33:08.298376704,-2.2647646484374997,0.4979609375,9.952036621093749,-0.004261057744126781,0.022370553156665602,-0.0021305288720633907,2.5252153989928567,12.28869719386381,307.709427272314
2026-09-29 19:33:08.314002432,-2.2719467773437496,0.43571582031249995,9.889791503906249,-0.006391586616190171,0.021305288720633905,-0.0010652644360316954,2.5212883351657145,12.303317258611143,307.7085699472406
2026-09-29 19:33:08.314002432,-2.2815229492187497,0.42613964843749996,9.89457958984375,-0.012783173232380343,0.019174759848570515,-0.0021305288720633907,2.5138904495765018,12.316645623241904,307.70756966707495
2026-09-29 19:33:08.345252096,-2.27912890625,0.41416943359374997,9.89936767578125,-0.017044230976507126,0.01597896654047543,-0.006391586616190171,2.5031165524117047,12.328854183914165,307.7039849952001
2026-09-29 19:33:08.408244480,-2.3317978515625,0.38065283203124994,9.86585107421875,-0.017044230976507126,0.011717908796348648,-0.010652644360316953,2.491150252045964,12.33809614276232,307.6980719071528
2026-09-29 19:33:08.408244480,-2.2982812499999996,0.32558984375,9.89936767578125,-0.014913702104443734,0.006391586616190171,-0.012783173232380343,2.4791104412972853,12.345530187821401,307.69041846196785
2026-09-29 19:33:08.408244480,-2.3102514648437498,0.32319580078125,9.839516601562499,-0.006391586616190171,0.0031957933080950856,-0.01384843766841204,2.4705078479459375,12.350301205427007,307.68130394956853
2026-09-29 19:33:08.408244480,-2.29588720703125,0.33037792968749996,9.80360595703125,0.0021305288720633907,0.0021305288720633907,-0.017044230976507126,2.4673415656012034,12.354046224498322,307.67121908662915
2026-09-29 19:33:08.455124224,-2.31503955078125,0.36150048828125,9.796423828124999,0.011717908796348648,0.0,-0.017044230976507126,2.4697700648189973,12.356415865861372,307.66044363196005
2026-09-29 19:33:08.455124224,-2.2480063476562497,0.40698730468749994,9.8443046875,0.01810949541253882,-0.0021305288720633907,-0.01810949541253882,2.4777216229277608,12.356978538472733,307.64943018162865
2026-09-29 19:33:08.455124224,-2.2456123046874996,0.45247412109374996,9.86106298828125,0.019174759848570515,-0.005326322180158476,-0.019174759848570515,2.486909143186061,12.355746020666846,307.6374618747951
2026-09-29 19:33:08.455124224,-2.20012548828125,0.45247412109374996,9.841910644531248,0.021305288720633905,-0.004261057744126781,-0.019174759848570515,2.4974370916261037,12.354144278497692,307.62520800606484
2026-09-29 19:33:08.455124224,-2.19054931640625,0.49317285156249996,9.86106298828125,0.02024002428460221,-0.0031957933080950856,-0.017044230976507126,2.508139063409448,12.35259388882803,307.61427351124695
2026-09-29 19:33:08.455124224,-2.1881552734375,0.5266894531249999,9.856274902343749,0.014913702104443734,-0.0021305288720633907,-0.01597896654047543,2.517706473994904,12.351689612041016,307.6041224754161
2026-09-29 19:33:08.470749952,-2.2025195312499997,0.507537109375,9.863457031249999,0.007456851052221867,0.0010652644360316954,-0.01597896654047543,2.5224701058661876,12.35237377313131,307.5940538972436
2026-09-29 19:33:08.470749952,-2.2192778320312496,0.507537109375,9.868245117187499,0.004261057744126781,0.004261057744126781,-0.014913702104443734,2.524647092902278,12.355129796362602,307.58500476828283
2026-09-29 19:33:08.470749952,-2.2288540039062497,0.51471923828125,9.896973632812498,0.0010652644360316954,0.008522115488253563,-0.012783173232380343,2.5248579468715726,12.36132153401418,307.5766537379666
2026-09-29 19:33:08.470749952,-2.25279443359375,0.48599072265625,9.851486816406249,0.004261057744126781,0.010652644360316953,-0.012783173232380343,2.5265211241403724,12.368657492015359,307.56870288133626
2026-09-29 19:33:08.470749952,-2.25279443359375,0.47402050781249994,9.9161259765625,0.004261057744126781,0.011717908796348648,-0.010652644360316953,2.52872177415153,12.376841879949895,307.56165630256197
2026-09-29 19:33:08.470749952,-2.27912890625,0.48599072265625,9.889791503906249,0.0010652644360316954,0.014913702104443734,-0.012783173232380343,2.529608465953884,12.386149921094308,307.55434492019594
2026-09-29 19:33:08.486401024,-2.30546337890625,0.46923242187499997,9.90415576171875,-0.0021305288720633907,0.010652644360316953,-0.012783173232380343,2.5271674521241634,12.395464063056105,307.5467156402719
2026-09-29 19:33:08.502417920,-2.3126455078125,0.46683837890624996,9.8873974609375,-0.006391586616190171,0.008522115488253563,-0.011717908796348648,2.522259796618182,12.403787352610419,307.5393389425872
2026-09-29 19:33:08.534350848,-2.31503955078125,0.45486816406249997,9.90415576171875,-0.011717908796348648,0.007456851052221867,-0.010652644360316953,2.5144217011041032,12.411092943732452,307.5325306202189
2026-09-29 19:33:08.597778176,-2.3533442382812497,0.44289794921875,9.923308105468749,-0.01597896654047543,0.0,-0.008522115488253563,2.5042431307773674,12.414632489254325,307.5264142761076
2026-09-29 19:33:08.597778176,-2.3270097656249997,0.42613964843749996,9.839516601562499,-0.019174759848570515,-0.005326322180158476,-0.009587379924285258,2.492357952460417,12.415177045497211,307.52047918921073
2026-09-29 19:33:08.644746496,-2.3078574218749996,0.392623046875,9.868245117187499,-0.021305288720633905,-0.010652644360316953,-0.006391586616190171,2.479255860824075,12.411720973950622,307.51558109068276
2026-09-29 19:33:08.644746496,-2.2839169921874998,0.392623046875,9.82275830078125,-0.024501082028728992,-0.014913702104443734,-0.004261057744126781,2.4648436480002753,12.405020300044018,307.5117930617348
2026-09-29 19:33:08.660371968,-2.31982763671875,0.40459326171875,9.9161259765625,-0.02769687533682408,-0.019174759848570515,-0.0031957933080950856,2.448503873759702,12.3965138872987,307.50851828257544
2026-09-29 19:33:08.660371968,-2.2982812499999996,0.40698730468749994,9.83233447265625,-0.03195793308095086,-0.023435817592697295,-0.0031957933080950856,2.4294151257654533,12.386001238236835,307.5051571874083
2026-09-29 19:33:08.660371968,-2.250400390625,0.36628857421875,9.868245117187499,-0.035153726389045944,-0.025566346464760685,-0.0021305288720633907,2.4088718906270064,12.373911323247391,307.50271147189125
2026-09-29 19:33:08.660371968,-2.24082421875,0.36150048828125,9.89457958984375,-0.03834951969714103,-0.025566346464760685,-0.0010652644360316954,2.386274790120969,12.360374328540312,307.50078109284067
2026-09-29 19:33:08.660371968,-2.2264599609375,0.36150048828125,9.961612792968749,-0.03834951969714103,-0.022370553156665602,0.0,2.3633078693024623,12.347543524099981,307.5001363509793
2026-09-29 19:33:08.660371968,-2.26237060546875,0.3495302734375,9.913731933593748,-0.04048004856920442,-0.023435817592697295,0.0,2.3394224378811006,12.334783032396391,307.49949653091585
2026-09-29 19:33:08.660371968,-2.2743408203124997,0.29925537109375,9.889791503906249,-0.04261057744126781,-0.025566346464760685,0.0,2.3148877424914276,12.32240660487893,307.49855627580297
2026-09-29 19:33:08.660371968,-2.24321826171875,0.31601367187499996,9.87542724609375,-0.04261057744126781,-0.02663161090079238,0.0,2.289173730950142,12.308616359020084,307.4971546714332
2026-09-29 19:33:08.660371968,-2.2120957031249997,0.2681328125,9.868245117187499,-0.043675841877299504,-0.025566346464760685,-0.0021305288720633907,2.262562679181362,12.294473876340172,307.49479309295714
2026-09-29 19:33:08.660371968,-2.1881552734375,0.3112255859375,9.882609375,-0.044741106313331204,-0.022370553156665602,-0.005326322180158476,2.2351147812509518,12.282543657565299,307.49061982150977
2026-09-29 19:33:08.660371968,-2.1761850585937497,0.2537685546875,9.89936767578125,-0.044741106313331204,-0.01810949541253882,-0.008522115488253563,2.207250495747258,12.272078136719234,307.48502005845484
2026-09-29 19:33:08.707248128,-2.2743408203124997,0.258556640625,9.928096191406249,-0.04261057744126781,-0.017044230976507126,-0.009587379924285258,2.1798535789560405,12.263228123866634,307.47848215875456
2026-09-29 19:33:08.785371392,-2.2551884765624997,0.28967919921874996,9.901761718749999,-0.04048004856920442,-0.019174759848570515,-0.010652644360316953,2.153573638592067,12.253992614742746,307.47099881519466
2026-09-29 19:33:08.785371392,-2.288705078125,0.24419238281249997,9.94246044921875,-0.03728425526110934,-0.019174759848570515,-0.009587379924285258,2.1291539762315597,12.244470381730018,307.4641761027432
2026-09-29 19:33:08.785371392,-2.2647646484374997,0.23701025390624997,9.94246044921875,-0.03302319751698255,-0.025566346464760685,-0.005326322180158476,2.106961273147391,12.232137699681116,307.45935280877393
2026-09-29 19:33:08.785371392,-2.250400390625,0.22025195312499998,9.9975234375,-0.029827404208887468,-0.02876213977285577,0.0,2.087704014745975,12.217632108193152,307.45695839966226
2026-09-29 19:33:08.785371392,-2.2192778320312496,0.229828125,9.889791503906249,-0.02876213977285577,-0.03302319751698255,0.0021305288720633907,2.0696193613136473,12.200465858024806,307.4569861689186
2026-09-29 19:33:08.785371392,-2.20012548828125,0.23701025390624997,9.8586689453125,-0.02876213977285577,-0.035153726389045944,0.004261057744126781,2.052010474014287,12.181176862760683,307.4584819521871
2026-09-29 19:33:08.785371392,-2.1881552734375,0.201099609375,9.94246044921875,-0.02876213977285577,-0.03302319751698255,0.005326322180158476,2.034662759648942,12.162434646581346,307.46065687504057
2026-09-29 19:33:08.847871488,-2.1833671875,0.22264599609375,9.930490234374998,-0.02663161090079238,-0.030892668644919165,0.008522115488253563,2.0183067561455252,12.144584597070448,307.46438688599704
2026-09-29 19:33:08.847871488,-2.1666088867187496,0.20828173828125,9.89457958984375,-0.025566346464760685,-0.02769687533682408,0.012783173232380343,2.002966722577574,12.128401181604907,307.47072002107564
2026-09-29 19:33:08.847871488,-2.154638671875,0.1675830078125,9.947248535156248,-0.022370553156665602,-0.024501082028728992,0.01597896654047543,1.989245007770695,12.11410575620219,307.4783320365482
2026-09-29 19:33:08.847871488,-2.1498505859374997,0.21785791015624997,9.949642578125,-0.017044230976507126,-0.02024002428460221,0.019174759848570515,1.9789888623195244,12.101759850439736,307.4881403772937
2026-09-29 19:33:08.847871488,-2.1690029296874997,0.16040087890625,9.923308105468749,-0.01384843766841204,-0.01810949541253882,0.02024002428460221,1.9712045994337495,12.091433710241665,307.49904177048916
2026-09-29 19:33:08.847871488,-2.15224462890625,0.18912939453125,9.9927353515625,-0.008522115488253563,-0.01597896654047543,0.021305288720633905,1.9662271025973976,12.08268749313483,307.5108391547817
2026-09-29 19:33:08.847871488,-2.14745654296875,0.1292783203125,9.90894384765625,-0.0010652644360316954,-0.011717908796348648,0.019174759848570515,1.9650506947735762,12.075021817847194,307.5217487416932
2026-09-29 19:33:08.860922112,-2.1498505859374997,0.17715917968749997,9.9209140625,0.006391586616190171,-0.008522115488253563,0.019174759848570515,1.968710859004393,12.069193844038269,307.5323481218005
2026-09-29 19:33:08.860922112,-2.1019697265625,0.17955322265624998,9.911337890625,0.01597896654047543,-0.004261057744126781,0.017044230976507126,1.9779726121704069,12.065421120876799,307.5421468691112
2026-09-29 19:33:08.863925504,-2.1402744140624996,0.20828173828125,9.8586689453125,0.022370553156665602,-0.0031957933080950856,0.014913702104443734,1.9912225652151256,12.062626417726083,307.5507873074837
2026-09-29 19:33:08.863925504,-2.154638671875,0.21067578124999997,9.86585107421875,0.025566346464760685,-0.0031957933080950856,0.014913702104443734,2.0070316795254635,12.061031653972899,307.55917433215353
2026-09-29 19:33:08.863925504,-2.0804233398437497,0.22264599609375,9.8873974609375,0.03302319751698255,-0.0010652644360316954,0.014913702104443734,2.0267136658843574,12.05957373216324,307.56726378682595
2026-09-29 19:33:08.895187200,-2.06605908203125,0.27770898437499997,9.880215332031248,0.04261057744126781,0.007456851052221867,0.014913702104443734,2.050776060584785,12.061904987066233,307.5761839889365
2026-09-29 19:33:08.895187200,-2.1067578124999997,0.33756005859375,9.956824707031249,0.05006742849348968,0.01810949541253882,0.01384843766841204,2.080293049805573,12.070462454524641,307.58449212904185
2026-09-29 19:33:08.911281920,-2.1666088867187496,0.33756005859375,9.89936767578125,0.05326322180158476,0.02876213977285577,0.009587379924285258,2.1125486741610184,12.085418728701558,307.5915836136393
2026-09-29 19:33:08.989520384,-2.2647646484374997,0.40938134765624995,9.944854492187499,0.04261057744126781,0.030892668644919165,0.006391586616190171,2.140274291977793,12.103810027748686,307.59662998636225
2026-09-29 19:33:08.989520384,-2.2719467773437496,0.37347070312499997,9.995129394531249,0.02876213977285577,0.024501082028728992,0.0031957933080950856,2.1604184361691323,12.120410623628672,307.5995275653486
2026-09-29 19:33:09.067938304,-2.31982763671875,0.33995410156249994,9.906549804687499,0.01384843766841204,0.01810949541253882,0.0010652644360316954,2.1707856687800025,12.13364531242139,307.60067275444555
2026-09-29 19:33:09.067938304,-2.25279443359375,0.296861328125,9.906549804687499,0.008522115488253563,0.009587379924285258,0.0021305288720633907,2.176367215573676,12.142696651762213,307.60154168831724
2026-09-29 19:33:09.067938304,-2.2456123046874996,0.3112255859375,9.935278320312499,0.009587379924285258,0.007456851052221867,0.004261057744126781,2.181211228532239,12.148735831615094,307.6034220815545
2026-09-29 19:33:09.067938304,-2.2480063476562497,0.296861328125,9.89936767578125,0.017044230976507126,0.006391586616190171,0.007456851052221867,2.1905427733923415,12.153775298051947,307.6075408502036
2026-09-29 19:33:09.067938304,-2.2168837890625,0.2824970703125,9.8443046875,0.021305288720633905,0.004261057744126781,0.009587379924285258,2.2032376124431075,12.157836783494218,307.61281983066755
2026-09-29 19:33:09.067938304,-2.2216718749999997,0.31840771484374997,9.873033203124999,0.02663161090079238,0.005326322180158476,0.012783173232380343,2.2185091635089176,12.161637530423466,307.6199050679054
2026-09-29 19:33:09.067938304,-2.2384301757812497,0.34713623046875,9.825152343749998,0.02663161090079238,0.007456851052221867,0.01597896654047543,2.23524014374919,12.166485595394143,307.6290048559622
2026-09-29 19:33:09.067938304,-2.3270097656249997,0.3782587890625,9.83233447265625,0.024501082028728992,0.005326322180158476,0.019174759848570515,2.252017764048621,12.170912429975125,307.64000932108866
2026-09-29 19:33:09.067938304,-2.30546337890625,0.40219921875,9.880215332031248,0.019174759848570515,0.0,0.02024002428460221,2.2667658312839962,12.173153650930448,307.6515918664434
2026-09-29 19:33:09.067938304,-2.2264599609375,0.45486816406249997,9.889791503906249,0.01384843766841204,-0.0031957933080950856,0.023435817592697295,2.2798695092029937,12.172636441190967,307.6653341923612
2026-09-29 19:33:09.067938304,-2.1953374023437497,0.39022900390625,9.853880859375,0.009587379924285258,-0.006391586616190171,0.025566346464760685,2.290445957879248,12.16925538274554,307.6802314551306
2026-09-29 19:33:09.067938304,-2.2073076171875,0.4165634765625,9.86585107421875,0.008522115488253563,-0.006391586616190171,0.030892668644919165,2.29983727232688,12.165105972804147,307.6969762332049
2026-09-29 19:33:09.067938304,-2.2025195312499997,0.43810986328124996,9.89457958984375,0.008522115488253563,-0.005326322180158476,0.03408846195301425,2.309693132733542,12.161411120744356,307.71621492165514
2026-09-29 19:33:09.099233536,-2.2120957031249997,0.41416943359374997,9.911337890625,0.006391586616190171,-0.0021305288720633907,0.03728425526110934,2.3192943438900824,12.159205699505556,307.7374406085111
2026-09-29 19:33:09.099233536,-2.20970166015625,0.39501708984374995,9.89457958984375,0.007456851052221867,0.0,0.039414784133172724,2.3289837755437173,12.159114128542344,307.7605577014774
2026-09-29 19:33:09.130456832,-2.26237060546875,0.430927734375,9.853880859375,0.006391586616190171,0.0,0.03834951969714103,2.3386847852201833,12.159117062094198,307.7830808578441
2026-09-29 19:33:09.130456832,-2.23364208984375,0.45247412109374996,9.8586689453125,0.0010652644360316954,-0.0021305288720633907,0.03728425526110934,2.345986463328154,12.158472053994847,307.8049799489525
2026-09-29 19:33:09.130456832,-2.2839169921874998,0.42135156249999994,9.90415576171875,-0.0021305288720633907,-0.007456851052221867,0.03302319751698255,2.3496348006921886,12.155333315571898,307.8252282789766
2026-09-29 19:33:09.130456832,-2.2719467773437496,0.40938134765624995,9.8107880859375,-0.005326322180158476,-0.007456851052221867,0.029827404208887468,2.3512735955769437,12.151675140101819,307.84354940574633
2026-09-29 19:33:09.224229888,-2.3078574218749996,0.45486816406249997,9.853880859375,-0.005326322180158476,-0.011717908796348648,0.02769687533682408,2.352139880349465,12.146499323372808,307.8602081499653
2026-09-29 19:33:09.224229888,-2.31503955078125,0.46683837890624996,9.911337890625,-0.004261057744126781,-0.01597896654047543,0.023435817592697295,2.353345071261642,12.139234616341206,307.874326681923
2026-09-29 19:33:09.224229888,-2.28631103515625,0.47880859374999996,9.906549804687499,-0.008522115488253563,-0.019174759848570515,0.017044230976507126,2.3517655692766413,12.13035993792589,307.88496861472925
2026-09-29 19:33:09.224229888,-2.2743408203124997,0.47162646484375,9.86106298828125,-0.01384843766841204,-0.021305288720633905,0.009587379924285258,2.3465470173705483,12.120494802553692,307.89126518541303
2026-09-29 19:33:09.224229888,-2.3270097656249997,0.45247412109374996,9.94246044921875,-0.01810949541253882,-0.02663161090079238,0.005326322180158476,2.338507786590575,12.107857444915714,307.8946139050093
2026-09-29 19:33:09.224229888,-2.26715869140625,0.45247412109374996,9.901761718749999,-0.021305288720633905,-0.03408846195301425,0.0,2.3277730497132585,12.091810684097881,307.8950186608559
2026-09-29 19:33:09.286705920,-2.288705078125,0.42853369140625,9.911337890625,-0.019174759848570515,-0.03728425526110934,0.0,2.3163395331072345,12.072866717282361,307.8942890891088
2026-09-29 19:33:09.286705920,-2.2647646484374997,0.46683837890624996,9.923308105468749,-0.019174759848570515,-0.04261057744126781,-0.0021305288720633907,2.304958669752064,12.05075781522321,307.8918872954303
2026-09-29 19:33:09.286705920,-2.1450625,0.46205029296874994,9.9257021484375,-0.021305288720633905,-0.04687163518539459,-0.0031957933080950856,2.293147295315635,12.025966337347173,307.88884732261425
2026-09-29 19:33:09.286705920,-2.1330922851562497,0.43810986328124996,9.9161259765625,-0.02663161090079238,-0.0458063707493629,-0.005326322180158476,2.278724157885102,12.000425491942282,307.8845207184579
2026-09-29 19:33:09.286705920,-2.1211220703125,0.43571582031249995,9.87063916015625,-0.029827404208887468,-0.04261057744126781,-0.007456851052221867,2.2610242043695656,11.975935646172566,307.8789448375415
2026-09-29 19:33:09.286705920,-2.07563525390625,0.41895751953125,9.913731933593748,-0.029827404208887468,-0.03834951969714103,-0.009587379924285258,2.2428501887595687,11.95383710732152,307.87223033860425
2026-09-29 19:33:09.302330624,-2.10436376953125,0.39022900390625,9.9209140625,-0.02876213977285577,-0.03621899082507764,-0.006391586616190171,2.224967947936031,11.933453765736376,307.8667948358698
2026-09-29 19:33:09.302330624,-2.09478759765625,0.4165634765625,9.90415576171875,-0.03195793308095086,-0.035153726389045944,-0.007456851052221867,2.2059411810804246,11.913307032879908,307.8610830515976
2026-09-29 19:33:09.302330624,-2.0971816406249997,0.41177539062499996,9.918520019531249,-0.03408846195301425,-0.03302319751698255,-0.007456851052221867,2.1861192701344265,11.89482303980044,307.8551729080013
2026-09-29 19:33:09.302330624,-2.1067578124999997,0.37107666015624996,9.985553222656248,-0.03728425526110934,-0.03195793308095086,-0.008522115488253563,2.164261294088612,11.876577924071858,307.8489399157362
2026-09-29 19:33:09.302330624,-2.05169482421875,0.34234814453124995,9.90894384765625,-0.03728425526110934,-0.029827404208887468,-0.008522115488253563,2.141696587777791,11.859387891581203,307.84266477886894
2026-09-29 19:33:09.302330624,-2.09957568359375,0.31601367187499996,9.87063916015625,-0.035153726389045944,-0.024501082028728992,-0.008522115488253563,2.1196180478517785,11.844924299215906,307.83648201968197
2026-09-29 19:33:09.302330624,-2.0804233398437497,0.34234814453124995,9.906549804687499,-0.03408846195301425,-0.021305288720633905,-0.010652644360316953,2.0979826417481955,11.832916235556738,307.82945179962576
2026-09-29 19:33:09.302330624,-2.05648291015625,0.31601367187499996,9.87542724609375,-0.030892668644919165,-0.017044230976507126,-0.012783173232380343,2.0776241764669723,11.822903379981023,307.82125719163025
2026-09-29 19:33:09.302330624,-2.0540888671874997,0.30883154296875,9.935278320312499,-0.02876213977285577,-0.012783173232380343,-0.012783173232380343,2.0584376716983535,11.814837211888301,307.81275948177864
2026-09-29 19:33:09.333580288,-2.05169482421875,0.2681328125,9.89936767578125,-0.02663161090079238,-0.009587379924285258,-0.014913702104443734,2.0401367217298665,11.80881383514041,307.8034376759413
2026-09-29 19:33:09.364830464,-2.09957568359375,0.28728515624999995,9.911337890625,-0.02663161090079238,-0.007456851052221867,-0.017044230976507126,2.021656260201155,11.805253959898845,307.79283617212485
2026-09-29 19:33:09.364830464,-2.1785791015625,0.26095068359374995,9.90894384765625,-0.02876213977285577,-0.006391586616190171,-0.01597896654047543,2.002058608887558,11.802467668503718,307.7822781334028
2026-09-29 19:33:09.364830464,-2.1139399414062496,0.24179833984375,9.918520019531249,-0.025566346464760685,-0.006391586616190171,-0.014913702104443734,1.9835795467727337,11.800432865238033,307.77230769962273
2026-09-29 19:33:09.459114240,-2.1402744140624996,0.25137451171874997,9.882609375,-0.022370553156665602,-0.007456851052221867,-0.017044230976507126,1.9668147228746136,11.797600112990855,307.7610994717514
2026-09-29 19:33:09.459114240,-2.1211220703125,0.24658642578124998,9.901761718749999,-0.01810949541253882,-0.005326322180158476,-0.014913702104443734,1.9531123490462658,11.795162566285232,307.7511611287729
2026-09-29 19:33:09.459114240,-2.16182080078125,0.1484306640625,9.9831591796875,0.0,0.0010652644360316954,-0.009587379924285258,1.9474612909977236,11.796036104586282,307.7434593410277
2026-09-29 19:33:09.459114240,-2.1690029296874997,0.13646044921875,10.026251953125,0.030892668644919165,0.0,-0.005326322180158476,1.9585144932423166,11.797166207988266,307.7383656069002
2026-09-29 19:33:09.459114240,-2.15703271484375,0.201099609375,9.961612792968749,0.05219795736555307,0.0,-0.0010652644360316954,1.9848840746588787,11.797680109012305,307.73638370444377
2026-09-29 19:33:09.459114240,-2.1235161132812497,0.26334472656249996,9.973583007812499,0.059654808417774936,0.0,0.0,2.0173747211350608,11.798685579284095,307.7358595979741
2026-09-29 19:33:09.459114240,-2.14745654296875,0.24658642578124998,9.968794921874998,0.07137271721412358,-0.005326322180158476,0.0010652644360316954,2.057687086621946,11.797059799884522,307.73654631843016
2026-09-29 19:33:09.537683712,-2.1067578124999997,0.32319580078125,9.95921875,0.07243798165015528,-0.006391586616190171,0.0,2.100111631716165,11.794316684609612,307.7362251787842
2026-09-29 19:33:09.537683712,-2.0804233398437497,0.27052685546875,9.949642578125,0.06391586616190172,-0.0031957933080950856,0.0,2.1378442935044144,11.791886845624335,307.73566455348345
2026-09-29 19:33:09.537683712,-2.11872802734375,0.31840771484374997,9.89936767578125,0.06285060172587002,0.0031957933080950856,-0.0010652644360316954,2.1723790574184942,11.793553883145268,307.73493105263464
2026-09-29 19:33:09.537683712,-2.14745654296875,0.27770898437499997,9.892185546875,0.06072007285380663,0.0010652644360316954,-0.0021305288720633907,2.205884941202004,11.795241450819592,307.7329696004443
2026-09-29 19:33:09.537683712,-2.1139399414062496,0.24419238281249997,9.90415576171875,0.05752427954571154,0.0021305288720633907,-0.0031957933080950856,2.237912114242278,11.796832576498781,307.7302851874834
2026-09-29 19:33:09.537683712,-2.16182080078125,0.28010302734375,9.856274902343749,0.06285060172587002,0.004261057744126781,-0.006391586616190171,2.270534134941295,11.799589162820167,307.72640037923173
2026-09-29 19:33:09.537683712,-2.11872802734375,0.3064375,9.89936767578125,0.059654808417774936,0.0,-0.009587379924285258,2.3045563749821407,11.801510903275112,307.7203421705072
2026-09-29 19:33:09.537683712,-2.173791015625,0.335166015625,9.8586689453125,0.04261057744126781,0.0,-0.010652644360316953,2.3298628287500978,11.802726106672015,307.7133298127686
2026-09-29 19:33:09.537683712,-2.1019697265625,0.35910644531249997,9.911337890625,0.02876213977285577,-0.0021305288720633907,-0.01384843766841204,2.346697393492994,11.802641075624313,307.70476713441195
2026-09-29 19:33:09.537683712,-2.068453125,0.33277197265624997,9.918520019531249,0.023435817592697295,-0.007456851052221867,-0.014913702104443734,2.3593751249763337,11.799371634600908,307.69517164370205
2026-09-29 19:33:09.537683712,-2.1163339843749998,0.33277197265624997,9.8778212890625,0.023435817592697295,-0.0021305288720633907,-0.014913702104443734,2.3712748643565447,11.797725207141028,307.68555274362546
2026-09-29 19:33:09.553280512,-2.1067578124999997,0.42135156249999994,9.9161259765625,0.023435817592697295,0.0010652644360316954,-0.01597896654047543,2.382691600334146,11.798895274298452,307.6758226347772
2026-09-29 19:33:09.553280512,-2.1235161132812497,0.45726220703125,9.935278320312499,0.014913702104443734,0.0021305288720633907,-0.01810949541253882,2.391702567616766,11.800681875197206,307.66506811436494
2026-09-29 19:33:09.553280512,-2.1402744140624996,0.47880859374999996,9.918520019531249,-0.005326322180158476,0.005326322180158476,-0.022370553156665602,2.3892433299242963,11.805011528898223,307.652636002515
2026-09-29 19:33:09.584530688,-2.1235161132812497,0.4835966796875,9.873033203124999,-0.03728425526110934,0.008522115488253563,-0.024501082028728992,2.3697748464490145,11.811354387912562,307.63808002636625
2026-09-29 19:33:09.584530688,-2.16421484375,0.43571582031249995,9.896973632812498,-0.06285060172587002,0.007456851052221867,-0.030892668644919165,2.3338766992276305,11.818246838985619,307.62073271133397
2026-09-29 19:33:09.600154624,-2.1761850585937497,0.39501708984374995,9.906549804687499,-0.08948221262666241,0.004261057744126781,-0.03195793308095086,2.2813246470535766,11.823948347212706,307.60196611141316
2026-09-29 19:33:09.600154624,-2.15224462890625,0.36868261718749995,9.928096191406249,-0.10226538585904274,-0.004261057744126781,-0.03302319751698255,2.219734873543429,11.824584115488106,307.58199923642525
2026-09-29 19:33:09.615782912,-2.09957568359375,0.28489111328125,9.901761718749999,-0.11398329465539139,-0.005326322180158476,-0.03408846195301425,2.150832119352889,11.823263948711723,307.56161724982115
2026-09-29 19:33:09.678302720,-2.1235161132812497,0.201099609375,9.98076513671875,-0.09800432811491597,-0.005326322180158476,-0.03195793308095086,2.0863981849655753,11.821704885737102,307.54174997573864
2026-09-29 19:33:09.678302720,-2.1163339843749998,0.162794921875,9.947248535156248,-0.07456851052221868,-0.005326322180158476,-0.02876213977285577,2.0346306290069003,11.81998918726361,307.52322156669084
2026-09-29 19:33:09.678302720,-2.10436376953125,0.15800683593749998,9.978371093749999,-0.0458063707493629,0.0,-0.024501082028728992,1.9994644343015984,11.819758108517682,307.5075318984023
2026-09-29 19:33:09.678302720,-2.1857612304687497,0.21785791015624997,9.968794921874998,-0.021305288720633905,0.0,-0.019174759848570515,1.9794154749918806,11.82093409042538,307.49472953630453
2026-09-29 19:33:09.725278464,-2.20970166015625,0.23701025390624997,9.93767236328125,-0.007456851052221867,-0.004261057744126781,-0.01597896654047543,1.9699024768517617,11.820730949740367,307.4841752273252
2026-09-29 19:33:09.725278464,-2.1785791015625,0.2729208984375,9.9257021484375,-0.0010652644360316954,-0.011717908796348648,-0.011717908796348648,1.9655706029664015,11.816872829131972,307.47571146785094
2026-09-29 19:33:09.725278464,-2.1857612304687497,0.30164941406249995,9.906549804687499,0.0,-0.01597896654047543,-0.012783173232380343,1.9636212328977536,11.809624557931333,307.4671856297959
2026-09-29 19:33:09.725278464,-2.10915185546875,0.27052685546875,9.93288427734375,0.0,-0.019174759848570515,-0.012783173232380343,1.962279153184268,11.799699075632772,307.45864019899255
2026-09-29 19:33:09.725278464,-2.07563525390625,0.229828125,9.856274902343749,0.0,-0.017044230976507126,-0.01384843766841204,1.9599749542807798,11.790193731940628,307.4494568480881
2026-09-29 19:33:09.725278464,-2.07563525390625,0.2824970703125,9.918520019531249,0.0031957933080950856,-0.01384843766841204,-0.010652644360316953,1.9593044662015506,11.781679294212173,307.44146870245356
2026-09-29 19:33:09.725278464,-2.07563525390625,0.25137451171874997,9.892185546875,0.008522115488253563,-0.010652644360316953,-0.009587379924285258,1.9624464859141044,11.77524075519876,307.43460311056117
2026-09-29 19:33:09.725278464,-2.0876054687499996,0.25616259765625,9.885003417968749,0.012783173232380343,-0.006391586616190171,-0.007456851052221867,1.9692060422311621,11.770889284537729,307.4296533388662
2026-09-29 19:33:09.740904704,-2.135486328125,0.30404345703124996,9.90415576171875,0.012783173232380343,-0.006391586616190171,-0.006391586616190171,1.9759769532890956,11.767380992119973,307.42473630131866
2026-09-29 19:33:09.756530944,-2.1402744140624996,0.28010302734375,9.95921875,0.010652644360316953,-0.004261057744126781,-0.005326322180158476,1.9823456454358583,11.764567712362432,307.42082980010406
2026-09-29 19:33:09.787778560,-2.0923935546875,0.29925537109375,9.90894384765625,0.009587379924285258,-0.0031957933080950856,-0.005326322180158476,1.9876334940106732,11.762901195653074,307.41722918221103
2026-09-29 19:33:09.787778560,-2.1163339843749998,0.25616259765625,9.93767236328125,0.009587379924285258,-0.0021305288720633907,-0.005326322180158476,1.9927213282476242,11.761549645490145,307.41330971914226
2026-09-29 19:33:09.897924608,-2.1115458984375,0.296861328125,9.995129394531249,0.012783173232380343,-0.0031957933080950856,-0.009587379924285258,1.9990809699901042,11.760359121407063,307.4078349617417
2026-09-29 19:33:09.913549824,-2.0636650390624998,0.26573876953125,9.9544306640625,0.017044230976507126,0.0,-0.010652644360316953,2.007794693943857,11.759877112436461,307.401189643099
2026-09-29 19:33:09.913549824,-2.1067578124999997,0.27531494140624996,9.96640087890625,0.017044230976507126,0.0010652644360316954,-0.014913702104443734,2.0157308359279598,11.761240840568766,307.3920494624245
2026-09-29 19:33:09.913549824,-2.1139399414062496,0.30164941406249995,9.968794921874998,0.014913702104443734,0.0,-0.019174759848570515,2.0221055031278268,11.762510983827669,307.3804406302512
2026-09-29 19:33:09.913549824,-2.07563525390625,0.27052685546875,9.9257021484375,0.01384843766841204,-0.0021305288720633907,-0.022370553156665602,2.02790353806435,11.762347346237897,307.36693240315174
2026-09-29 19:33:09.913549824,-2.0828173828125,0.30164941406249995,9.944854492187499,0.014913702104443734,0.0,-0.025566346464760685,2.0329925605924575,11.762440581992768,307.351797332408
2026-09-29 19:33:09.913549824,-2.14745654296875,0.28728515624999995,9.968794921874998,0.019174759848570515,0.0,-0.02663161090079238,2.040241081511255,11.762655701106251,307.3357712190358
2026-09-29 19:33:09.913549824,-2.1067578124999997,0.27531494140624996,9.913731933593748,0.024501082028728992,0.0,-0.02769687533682408,2.050579976173171,11.7634602199554,307.31880560397514
2026-09-29 19:33:09.913549824,-2.1402744140624996,0.30164941406249995,9.940066406249999,0.029827404208887468,0.0010652644360316954,-0.02769687533682408,2.063267809739545,11.764954662948401,307.3018531961326
2026-09-29 19:33:09.913549824,-2.0732412109375,0.29446728515625,9.9209140625,0.030892668644919165,0.0021305288720633907,-0.02876213977285577,2.0774979343539437,11.767205287175035,307.2846898878375
2026-09-29 19:33:09.913549824,-2.1115458984375,0.32319580078125,9.863457031249999,0.029827404208887468,0.005326322180158476,-0.02876213977285577,2.0909518616947658,11.771038504397678,307.26724888416294
2026-09-29 19:33:09.913549824,-2.13788037109375,0.31361962890624995,9.901761718749999,0.02876213977285577,0.0021305288720633907,-0.029827404208887468,2.104278690660221,11.774225858873947,307.2495244032599
2026-09-29 19:33:09.913549824,-2.1450625,0.30404345703124996,9.94246044921875,0.025566346464760685,0.0021305288720633907,-0.030892668644919165,2.1153971161915734,11.777080574102518,307.2314652289468
2026-09-29 19:33:09.929175808,-2.15224462890625,0.335166015625,9.90894384765625,0.019174759848570515,0.0010652644360316954,-0.029827404208887468,2.1237379758378214,11.780023587207468,307.2133999057079
2026-09-29 19:33:09.929175808,-2.0708471679687497,0.3495302734375,9.952036621093749,0.014913702104443734,-0.0010652644360316954,-0.029827404208887468,2.130098238788121,11.780641257148332,307.1952889454723
2026-09-29 19:33:09.944800768,-2.14745654296875,0.37586474609375,9.973583007812499,0.009587379924285258,-0.0010652644360316954,-0.02769687533682408,2.134126333404643,11.780366471977986,307.17844557958654
2026-09-29 19:33:09.944800768,-2.10915185546875,0.37586474609375,9.928096191406249,0.006391586616190171,-0.0010652644360316954,-0.024501082028728992,2.1363131695038784,11.780475997969578,307.1631552200941
2026-09-29 19:33:09.976051712,-2.07563525390625,0.39741113281249996,9.913731933593748,0.004261057744126781,0.0010652644360316954,-0.02024002428460221,2.137200120793474,11.781153529341871,307.15045736198783
2026-09-29 19:33:09.976051712,-2.1235161132812497,0.38304687499999995,9.873033203124999,0.0,0.0031957933080950856,-0.014913702104443734,2.1365725766155923,11.783443194660679,307.1407025192155
2026-09-29 19:33:10.038549760,-2.10436376953125,0.37586474609375,9.94246044921875,0.0,0.005326322180158476,-0.009587379924285258,2.1347715212104026,11.787356831196385,307.1339984086892
2026-09-29 19:33:10.038549760,-2.0876054687499996,0.37347070312499997,9.873033203124999,-0.0010652644360316954,0.009587379924285258,-0.004261057744126781,2.133248918434634,11.793185588640723,307.13053887807934
2026-09-29 19:33:10.038549760,-2.13788037109375,0.35671240234374996,9.873033203124999,-0.004261057744126781,0.012783173232380343,-0.0010652644360316954,2.130209860964464,11.801411219407722,307.12932204102685
2026-09-29 19:33:10.038549760,-2.15703271484375,0.38304687499999995,9.892185546875,-0.007456851052221867,0.012783173232380343,0.0,2.1257741816985103,11.809955320750177,307.1293252157342
2026-09-29 19:33:10.101291264,-2.1450625,0.33277197265624997,9.940066406249999,-0.009587379924285258,0.012783173232380343,0.0031957933080950856,2.119941381745584,11.819238186846512,307.13122959365387
2026-09-29 19:33:10.101291264,-2.154638671875,0.32319580078125,9.93288427734375,-0.008522115488253563,0.010652644360316953,0.0021305288720633907,2.113869446338555,11.827430393646196,307.13238041117694
2026-09-29 19:33:10.101291264,-2.19054931640625,0.29207324218749997,9.913731933593748,-0.007456851052221867,0.009587379924285258,0.0,2.108486304696499,11.834582486089237,307.13315255577186
2026-09-29 19:33:10.101291264,-2.1785791015625,0.33277197265624997,10.019069824218748,-0.006391586616190171,0.006391586616190171,-0.0010652644360316954,2.103254079440709,11.84076128150763,307.1325919966133
2026-09-29 19:33:10.101291264,-2.1881552734375,0.28728515624999995,9.923308105468749,-0.006391586616190171,0.0021305288720633907,-0.0031957933080950856,2.0983392187735204,11.844582698662535,307.13046457848594
2026-09-29 19:33:10.101291264,-2.1761850585937497,0.29446728515625,9.913731933593748,-0.008522115488253563,-0.0010652644360316954,-0.004261057744126781,2.0921106385567456,11.846127203874307,307.12757068524013
2026-09-29 19:33:10.101291264,-2.1426684570312498,0.28489111328125,9.8778212890625,-0.008522115488253563,-0.0031957933080950856,-0.004261057744126781,2.0861331754958825,11.846224700245239,307.12401435025674
2026-09-29 19:33:10.101291264,-2.10436376953125,0.28728515624999995,9.956824707031249,-0.010652644360316953,-0.0021305288720633907,-0.007456851052221867,2.0782776407219505,11.846174251566094,307.1194902078217
2026-09-29 19:33:10.101291264,-2.12591015625,0.28728515624999995,9.928096191406249,-0.012783173232380343,-0.0031957933080950856,-0.007456851052221867,2.0692170814695667,11.844876685650725,307.1143508354261
2026-09-29 19:33:10.101291264,-2.135486328125,0.3208017578125,9.892185546875,-0.014913702104443734,0.0,-0.005326322180158476,2.0586951172588757,11.84537397648862,307.1098757191886
2026-09-29 19:33:10.101291264,-2.15703271484375,0.27052685546875,9.96640087890625,-0.011717908796348648,0.0,-0.004261057744126781,2.0496332030252744,11.846919472108636,307.106738503841
2026-09-29 19:33:10.132621824,-2.10436376953125,0.28010302734375,9.89936767578125,-0.008522115488253563,0.0021305288720633907,0.0,2.0426640860770036,11.849129439893403,307.10637327802596
2026-09-29 19:33:10.163903232,-2.0971816406249997,0.27052685546875,9.947248535156248,-0.007456851052221867,0.005326322180158476,0.004261057744126781,2.0369095909228956,11.852846077933359,307.10792382123697
2026-09-29 19:33:10.226371072,-2.12830419921875,0.2681328125,9.9161259765625,-0.0021305288720633907,0.007456851052221867,0.004261057744126781,2.033725486218201,11.857723720184003,307.11043834782595
2026-09-29 19:33:10.226371072,-2.135486328125,0.27531494140624996,9.89936767578125,0.0,0.008522115488253563,0.004261057744126781,2.032292704935186,11.863332800910738,307.11295738835634
2026-09-29 19:33:10.226371072,-2.135486328125,0.2824970703125,9.8873974609375,0.0,0.007456851052221867,0.0021305288720633907,2.0309841549091585,11.869275296164053,307.1142450715212
2026-09-29 19:33:10.226371072,-2.1690029296874997,0.2824970703125,9.906549804687499,0.0,0.004261057744126781,0.0021305288720633907,2.0304733015159213,11.873637506503107,307.11550784191144
2026-09-29 19:33:10.288871936,-2.0804233398437497,0.28967919921874996,9.9209140625,0.004261057744126781,0.005326322180158476,0.0010652644360316954,2.032016766912114,11.87728160730763,307.11642330189966
2026-09-29 19:33:10.288871936,-2.1235161132812497,0.33277197265624997,9.906549804687499,0.010652644360316953,0.009587379924285258,0.0031957933080950856,2.037305819832278,11.882364624343651,307.118399296905
2026-09-29 19:33:10.288871936,-2.1402744140624996,0.34713623046875,9.961612792968749,0.011717908796348648,0.01384843766841204,0.0021305288720633907,2.0449990240544706,11.890420704097634,307.1199295440072
2026-09-29 19:33:10.288871936,-2.15703271484375,0.41416943359374997,9.9544306640625,0.0021305288720633907,0.017044230976507126,0.0,2.0491092942849973,11.90091025197388,307.12071934211735
2026-09-29 19:33:10.288871936,-2.19054931640625,0.41416943359374997,9.90894384765625,-0.011717908796348648,0.014913702104443734,-0.0031957933080950856,2.0447854616069003,11.911122917021151,307.11942164571883
2026-09-29 19:33:10.288871936,-2.2073076171875,0.37107666015624996,9.9161259765625,-0.02663161090079238,0.009587379924285258,-0.0031957933080950856,2.0311858789925847,11.919841430467207,307.1173741879432
2026-09-29 19:33:10.288871936,-2.250400390625,0.36389453125,9.956824707031249,-0.03621899082507764,0.006391586616190171,-0.0010652644360316954,2.010742619347776,11.925561229933814,307.11608765160014
2026-09-29 19:33:10.288871936,-2.24321826171875,0.29207324218749997,10.002311523437498,-0.03621899082507764,0.0,0.0021305288720633907,1.989871968841966,11.928054120308124,307.1164499997258
2026-09-29 19:33:10.288871936,-2.22406591796875,0.27531494140624996,9.995129394531249,-0.029827404208887468,-0.005326322180158476,0.008522115488253563,1.9713153871687707,11.927496968068139,307.1203266378157
2026-09-29 19:33:10.288871936,-2.154638671875,0.27531494140624996,9.990341308593749,-0.01810949541253882,-0.009587379924285258,0.014913702104443734,1.9602241951260986,11.923268471400323,307.12813600025436
2026-09-29 19:33:10.288871936,-2.19054931640625,0.28728515624999995,9.956824707031249,-0.012783173232380343,-0.012783173232380343,0.019174759848570515,1.9536919555015877,11.917256919610885,307.13840482317676
2026-09-29 19:33:10.304496896,-2.1761850585937497,0.33756005859375,9.9161259765625,-0.014913702104443734,-0.012783173232380343,0.022370553156665602,1.9477308345760889,11.910675400875697,307.15086106110414
2026-09-29 19:33:10.304496896,-2.173791015625,0.32798388671874995,9.901761718749999,-0.02024002428460221,-0.014913702104443734,0.025566346464760685,1.939786236180784,11.902495947978247,307.16522580907593
2026-09-29 19:33:10.304496896,-2.1402744140624996,0.28489111328125,9.87063916015625,-0.024501082028728992,-0.01597896654047543,0.02663161090079238,1.929239292102384,11.894189847638096,307.1802085217576
2026-09-29 19:33:10.335763200,-2.1330922851562497,0.24898046875,9.906549804687499,-0.02663161090079238,-0.017044230976507126,0.02769687533682408,1.9167686189774797,11.884985659788644,307.1962848804948
