Timestamp,ax,ay,az,gx,gy,gz,roll,pitch,yaw
2026-09-29 20:42:14.077723136,0.047880859374999994,-0.067033203125,10.236927734375,0.0,0.0,-0.0010652644360316954,1.35331236030544,359.4496768470525,51.45359084449317
2026-09-29 20:42:14.387421952,0.0622451171875,-0.06463916015625,10.17707666015625,0.0,-0.0010652644360316954,-0.0010652644360316954,1.3499065279418032,359.44953474801446,51.45253050981018
2026-09-29 20:42:14.387421952,0.05745703125,-0.06463916015625,10.172288574218749,0.0,-0.0010652644360316954,-0.0010652644360316954,1.3468888463076512,359.44955241600525,51.45177445824067
2026-09-29 20:42:14.387421952,0.06463916015625,-0.09336767578124999,10.14356005859375,0.0,0.0,-0.0010652644360316954,1.3432844964743895,359.45005920676203,51.451028334042064
2026-09-29 20:42:14.387421952,0.0622451171875,-0.05266894531249999,10.18665283203125,0.0,0.0010652644360316954,-0.0010652644360316954,1.3397805806023992,359.4506448207736,51.45028838158523
2026-09-29 20:42:14.387421952,0.067033203125,-0.03112255859375,10.212987304687498,-0.0010652644360316954,0.0,0.0,1.3357073939565154,359.45112706193106,51.45015525215131
2026-09-29 20:42:14.387421952,0.09336767578124999,-0.04548681640625,10.141166015624998,0.0,0.0,-0.0010652644360316954,1.3320107321161327,359.45129997253287,51.44971218721556
2026-09-29 20:42:14.395943168,0.0383046875,-0.09336767578124999,10.21059326171875,0.0,0.0,0.0,1.3289806002762474,359.4517123365953,51.44958074843616
2026-09-29 20:42:14.395943168,0.07182128906249999,-0.06463916015625,10.18186474609375,0.0,0.0,-0.0021305288720633907,1.3258180418976502,359.4523837427729,51.44853522839501
2026-09-29 20:42:14.395943168,0.05027490234375,-0.05027490234375,10.2034111328125,0.0,0.0,-0.0021305288720633907,1.3227240186894658,359.45239762935813,51.44778004571323
2026-09-29 20:42:14.395943168,0.06942724609374999,-0.05027490234375,10.234533691406249,0.0,0.0,-0.0021305288720633907,1.319370632667218,359.4525606924785,51.446418378372535
2026-09-29 20:42:14.395943168,0.055062988281249996,-0.07182128906249999,10.239321777343749,0.0,0.0010652644360316954,0.0,1.3163693599179676,359.4536053895256,51.44599552735906
2026-09-29 20:42:14.411577088,0.043092773437499995,-0.043092773437499995,10.198623046875,0.0,0.0,-0.0010652644360316954,1.3125940908395206,359.4544080661105,51.44555999364724
2026-09-29 20:42:14.411577088,0.076609375,-0.07900341796874999,10.196229003906248,0.0,0.0,-0.0010652644360316954,1.3093642994083214,359.45517412612435,51.4448169816927
2026-09-29 20:42:14.411577088,0.055062988281249996,-0.05745703125,10.184258789062499,0.0,0.0,-0.0010652644360316954,1.3062039478087821,359.4553622492861,51.444374470630734
2026-09-29 20:42:14.411577088,0.06463916015625,-0.07421533203125,10.229745605468748,0.0,-0.0010652644360316954,-0.0010652644360316954,1.3029873408541799,359.45543674403854,51.4436173952458
2026-09-29 20:42:14.411577088,0.0622451171875,-0.067033203125,10.217775390624999,0.0,0.0,0.0,1.2999327251125856,359.45581012566504,51.4431807084978
2026-09-29 20:42:14.411577088,0.067033203125,-0.06942724609374999,10.184258789062499,0.0,0.0,-0.0010652644360316954,1.2964456704336513,359.45600558520323,51.442433193253905
2026-09-29 20:42:14.427202816,0.06942724609374999,-0.0383046875,10.201017089843749,0.0,-0.0010652644360316954,-0.0010652644360316954,1.2928792688171307,359.4561044138166,51.44167670057103
2026-09-29 20:42:14.442824448,0.05027490234375,-0.08379150390625,10.2034111328125,0.0,-0.0010652644360316954,-0.0010652644360316954,1.290368520751566,359.45580468181856,51.44091193213796
2026-09-29 20:42:14.458451712,0.0335166015625,-0.08379150390625,10.179470703124998,0.0,0.0,-0.0010652644360316954,1.2870270252844824,359.4565637339286,51.44047494399594
2026-09-29 20:42:14.458451712,0.047880859374999994,-0.059851074218749994,10.2321396484375,0.0,0.0,0.0,1.2837919212242175,359.45674871292215,51.44003010445431
2026-09-29 20:42:14.474074880,0.07182128906249999,-0.05745703125,10.157924316406248,0.0,-0.0010652644360316954,-0.0010652644360316954,1.2801428648226203,359.45720410294155,51.43928113849267
2026-09-29 20:42:14.474074880,0.047880859374999994,-0.06942724609374999,10.162712402343749,0.0,0.0,0.0,1.2768336425577613,359.45733278712305,51.438837002019255
2026-09-29 20:42:14.474074880,0.043092773437499995,-0.05027490234375,10.236927734375,0.0,0.0,-0.0010652644360316954,1.2738304099184237,359.4577038441974,51.43808774903666
2026-09-29 20:42:14.474074880,0.055062988281249996,-0.06942724609374999,10.1938349609375,0.0010652644360316954,0.0,-0.0021305288720633907,1.2715480472250964,359.4584594457769,51.4370391245469
2026-09-29 20:42:14.489700096,0.08379150390625,-0.06942724609374999,10.201017089843749,0.0,0.0,-0.0021305288720633907,1.2687118604232779,359.4585272056598,51.4356713590675
2026-09-29 20:42:14.489700096,0.055062988281249996,-0.055062988281249996,10.20819921875,0.0,0.0,0.0,1.264754837504295,359.4590461842125,51.43553941733697
2026-09-29 20:42:14.489700096,0.06463916015625,-0.05266894531249999,10.217775390624999,0.0,0.0,-0.0010652644360316954,1.261858220383731,359.45941808385766,51.43478918279982
2026-09-29 20:42:14.505326080,0.067033203125,-0.043092773437499995,10.19144091796875,0.0,-0.0010652644360316954,-0.0010652644360316954,1.258861237925758,359.4594310168124,51.434030199008845
2026-09-29 20:42:14.505326080,0.023940429687499997,-0.059851074218749994,10.1938349609375,0.0,0.0,-0.0010652644360316954,1.2556865265589718,359.4594252571026,51.43296784415036
2026-09-29 20:42:14.520949504,0.08857958984374999,-0.067033203125,10.229745605468748,0.0,0.0,-0.0010652644360316954,1.2525160468153418,359.460154041369,51.432223928239374
2026-09-29 20:42:14.520949504,0.035910644531249994,-0.076609375,10.246503906249998,0.0,0.0,-0.0021305288720633907,1.2495529619470978,359.45994779098095,51.43116237872238
2026-09-29 20:42:14.520949504,0.04548681640625,-0.059851074218749994,10.205805175781249,0.0010652644360316954,0.0,-0.0010652644360316954,1.2468556345783162,359.4602000194002,51.430412986028415
2026-09-29 20:42:14.520949504,0.05027490234375,-0.06463916015625,10.11961962890625,0.0,0.0,-0.0010652644360316954,1.2439103109986414,359.4607587116575,51.42936467770095
2026-09-29 20:42:14.536575232,0.1149140625,-0.05266894531249999,10.18186474609375,0.0,-0.0010652644360316954,-0.0021305288720633907,1.2409326826277505,359.46119616649236,51.42831006932747
2026-09-29 20:42:14.536575232,0.05266894531249999,-0.07900341796874999,10.205805175781249,0.0,0.0,-0.0021305288720633907,1.2381548879393431,359.46074839283546,51.42724694038124
2026-09-29 20:42:14.536575232,0.11012597656249999,-0.08618554687499999,10.189046874999999,0.0,0.0,0.0,1.235172083802534,359.4610032734038,51.4274126790582
2026-09-29 20:42:14.536575232,0.08379150390625,-0.0622451171875,10.263262207031248,0.0,0.0,0.0,1.2323851926645593,359.4609995938703,51.427280885384434
2026-09-29 20:42:14.552199424,0.07182128906249999,-0.055062988281249996,10.263262207031248,0.0,0.0010652644360316954,-0.0010652644360316954,1.2295475811752195,359.46215943585474,51.426244658342064
2026-09-29 20:42:14.552199424,0.05027490234375,-0.0813974609375,10.205805175781249,0.0,0.0,0.0,1.2264562182276453,359.46238993864347,51.42579829486179
2026-09-29 20:42:14.552199424,0.055062988281249996,-0.09576171874999999,10.1938349609375,0.0,0.0,-0.0010652644360316954,1.22328065374324,359.46238211445177,51.42504110449311
2026-09-29 20:42:14.552199424,0.0622451171875,-0.07900341796874999,10.1938349609375,0.0,0.0,-0.0021305288720633907,1.219749659523861,359.4632780333244,51.42431331662419
2026-09-29 20:42:14.552199424,0.06942724609374999,-0.06463916015625,10.272838378906249,0.0,0.0,0.0,1.2162088987945885,359.46358210121946,51.42386823605632
2026-09-29 20:42:14.552199424,0.07182128906249999,-0.0335166015625,10.21059326171875,0.0,0.0,-0.0021305288720633907,1.212660515793571,359.46402881180427,51.42251441872037
2026-09-29 20:42:14.552199424,0.05266894531249999,-0.05266894531249999,10.172288574218749,0.0,0.0,-0.0021305288720633907,1.210012855027976,359.4644451113334,51.42115508616487
2026-09-29 20:42:14.567823872,0.05745703125,-0.043092773437499995,10.189046874999999,0.0,0.0,-0.0010652644360316954,1.207025735671332,359.464972412185,51.42010396326946
2026-09-29 20:42:14.567823872,0.0909736328125,-0.07421533203125,10.246503906249998,0.0010652644360316954,0.0,-0.0010652644360316954,1.2047520064610726,359.4658786569851,51.41936333151505
2026-09-29 20:42:14.567823872,0.067033203125,-0.08379150390625,10.212987304687498,0.0,-0.0010652644360316954,0.0,1.2016036064999511,359.4660750823996,51.41891734555565
2026-09-29 20:42:14.567823872,0.0383046875,-0.10533789062499999,10.157924316406248,0.0,0.0010652644360316954,-0.0010652644360316954,1.1986659204104142,359.46686540090013,51.418485035376484
2026-09-29 20:42:14.567823872,0.0909736328125,-0.067033203125,10.20819921875,0.0,0.0,-0.0010652644360316954,1.1951487162261223,359.4675636273825,51.417743597504916
2026-09-29 20:42:14.583448576,0.06942724609374999,-0.08618554687499999,10.217775390624999,0.0,-0.0010652644360316954,-0.0010652644360316954,1.1918423180925795,359.46732869303116,51.41728987203645
2026-09-29 20:42:14.583448576,0.05266894531249999,-0.067033203125,10.201017089843749,0.0,0.0,0.0,1.1893887611480178,359.46711407847846,51.41714188840103
2026-09-29 20:42:14.583448576,0.06463916015625,-0.04069873046875,10.1651064453125,0.0,0.0,0.0,1.186942044085782,359.46779427572807,51.41670128237193
2026-09-29 20:42:14.583448576,0.09336767578124999,-0.09336767578124999,10.1746826171875,0.0,-0.0021305288720633907,-0.0010652644360316954,1.1842263162238447,359.46758225716695,51.416238713102466
2026-09-29 20:42:14.583448576,0.043092773437499995,-0.09576171874999999,10.196229003906248,0.0,0.0,0.0,1.1809156100877063,359.4676921105572,51.415794189704975
2026-09-29 20:42:14.583448576,0.03112255859375,-0.07900341796874999,10.196229003906248,0.0,-0.0021305288720633907,-0.0021305288720633907,1.1775537538973277,359.46758608002466,51.414727391616665
2026-09-29 20:42:14.583448576,0.01915234375,-0.08618554687499999,10.246503906249998,0.0,0.0,0.0,1.1742839177964841,359.46756932594957,51.413971265180884
2026-09-29 20:42:14.599074304,0.05027490234375,-0.10773193359375,10.160318359375,-0.0010652644360316954,-0.0010652644360316954,-0.0010652644360316954,1.1704757783048805,359.4683610334232,51.41322680117774
2026-09-29 20:42:14.599074304,0.0383046875,-0.067033203125,10.22495751953125,0.0,0.0,0.0,1.1675424652772626,359.46896149547587,51.413086768757985
2026-09-29 20:42:14.599074304,0.067033203125,-0.08618554687499999,10.20819921875,0.0,-0.0021305288720633907,-0.0010652644360316954,1.1644096688336,359.46834615536307,51.41231675742987
2026-09-29 20:42:14.599074304,0.05266894531249999,-0.06942724609374999,10.22016943359375,0.0,0.0,0.0,1.1611217713959507,359.4689644465615,51.41218062300124
2026-09-29 20:42:14.599074304,0.04069873046875,-0.08857958984374999,10.196229003906248,0.0,-0.0010652644360316954,-0.0010652644360316954,1.1578422380419529,359.4693169196863,51.411430645048306
2026-09-29 20:42:14.599074304,0.055062988281249996,-0.06463916015625,10.20819921875,0.0,0.0,-0.0010652644360316954,1.1548058957082008,359.4697679092596,51.41098360402244
2026-09-29 20:42:14.599074304,0.07182128906249999,-0.07421533203125,10.19144091796875,0.0,0.0,-0.0010652644360316954,1.1527371493940946,359.4701163015547,51.410230860473824
2026-09-29 20:42:14.599074304,0.055062988281249996,-0.043092773437499995,10.2321396484375,0.0,0.0,-0.0010652644360316954,1.1500728424590243,359.4704318503594,51.40978311483471
2026-09-29 20:42:14.599074304,0.0813974609375,-0.07182128906249999,10.179470703124998,0.0,-0.0010652644360316954,0.0,1.1479396549802645,359.469767403346,51.40931496281218
2026-09-29 20:42:14.599074304,0.06463916015625,-0.05266894531249999,10.251291992187499,0.0,0.0,-0.0010652644360316954,1.1453100192937324,359.4701577673635,51.40856782707273
2026-09-29 20:42:14.615109888,0.07182128906249999,-0.07182128906249999,10.196229003906248,0.0,0.0,-0.0010652644360316954,1.142163608416555,359.4705955509423,51.408127738606126
2026-09-29 20:42:14.629786880,0.04069873046875,-0.06942724609374999,10.189046874999999,0.0010652644360316954,0.0,0.0,1.139727818632218,359.4715615062627,51.40769282211553
2026-09-29 20:42:14.637969408,0.09576171874999999,-0.076609375,10.24889794921875,0.0,-0.0010652644360316954,-0.0010652644360316954,1.1370633959482712,359.4718271171742,51.40693384161546
2026-09-29 20:42:14.644073984,0.06463916015625,-0.10773193359375,10.15313623046875,0.0,0.0010652644360316954,-0.0010652644360316954,1.1339377527944978,359.4725322925806,51.40619440616681
2026-09-29 20:42:14.652674816,0.059851074218749994,-0.08857958984374999,10.196229003906248,0.0,0.0,-0.0010652644360316954,1.131011763885518,359.4726747328052,51.40543779309877
2026-09-29 20:42:14.658384896,0.05745703125,-0.043092773437499995,10.1938349609375,0.0,0.0,-0.0021305288720633907,1.1278210953999055,359.4730789548399,51.404387869711506
2026-09-29 20:42:14.671247872,0.05266894531249999,-0.1005498046875,10.212987304687498,0.0,0.0,-0.0010652644360316954,1.1249665602211267,359.4731436034076,51.40362778584449
2026-09-29 20:42:14.686382592,0.059851074218749994,-0.08618554687499999,10.1651064453125,0.0,-0.0010652644360316954,-0.0021305288720633907,1.1218968548586046,359.472855455812,51.40255873013649
2026-09-29 20:42:14.686382592,0.05745703125,-0.07421533203125,10.205805175781249,0.0,0.0010652644360316954,-0.0021305288720633907,1.1189427195857922,359.47358064196845,51.40182036714039
2026-09-29 20:42:14.702784512,0.05745703125,-0.0813974609375,10.1651064453125,0.0,0.0,0.0,1.1162049568894084,359.4741311725999,51.401379148589186
2026-09-29 20:42:14.747617024,0.08857958984374999,-0.09815576171875,10.198623046875,0.0,-0.0010652644360316954,-0.0010652644360316954,1.1130886283424957,359.47431007866055,51.400627449612024
2026-09-29 20:42:14.747617024,0.07421533203125,-0.11970214843749999,10.141166015624998,0.0,0.0,0.0,1.109544704960756,359.4749902660927,51.40019388688147
2026-09-29 20:42:14.773141504,0.04069873046875,-0.07182128906249999,10.172288574218749,0.0010652644360316954,0.0,0.0,1.1069619935386663,359.4754509127132,51.39975389329155
2026-09-29 20:42:14.773141504,0.07182128906249999,-0.06463916015625,10.201017089843749,0.0,0.0,-0.0010652644360316954,1.1044123760838016,359.476493349261,51.39870658833058
2026-09-29 20:42:14.773141504,0.0143642578125,-0.035910644531249994,10.179470703124998,0.0,-0.0010652644360316954,0.0,1.1012556176270296,359.47625431723543,51.39825168124351
2026-09-29 20:42:14.773141504,0.04069873046875,-0.09576171874999999,10.196229003906248,0.0,0.0,-0.0010652644360316954,1.0980572053778377,359.4774441881417,51.3978148319226
2026-09-29 20:42:14.773141504,0.0622451171875,-0.07900341796874999,10.189046874999999,0.0,0.0,-0.0010652644360316954,1.095166781204053,359.47848177771084,51.39707541521677
2026-09-29 20:42:14.788840704,0.08618554687499999,-0.07421533203125,10.20819921875,0.0,0.0,-0.0010652644360316954,1.0925510553686373,359.4790253847895,51.39632766935894
2026-09-29 20:42:14.788840704,0.05027490234375,-0.09336767578124999,10.198623046875,0.0010652644360316954,0.0010652644360316954,0.0,1.0899640633639,359.47957010206153,51.395585456167865
2026-09-29 20:42:14.803420672,0.055062988281249996,-0.09336767578124999,10.20819921875,0.0,0.0,0.0,1.0875266788186673,359.4802383726792,51.39514385814834
2026-09-29 20:42:14.803420672,0.067033203125,-0.028728515625,10.212987304687498,0.0,0.0,0.0,1.0848798811777833,359.48038230300347,51.394994885816665
2026-09-29 20:42:14.820622592,0.07900341796874999,-0.067033203125,10.21538134765625,0.0,0.0,-0.0010652644360316954,1.0822045118776575,359.480975174533,51.39425046639694
2026-09-29 20:42:14.836687616,0.035910644531249994,-0.067033203125,10.198623046875,0.0010652644360316954,0.0,-0.0010652644360316954,1.080087838765321,359.48156161267167,51.39381172095056
2026-09-29 20:42:14.836687616,0.043092773437499995,-0.08857958984374999,10.227351562499999,0.0,0.0,0.0,1.0771187356672924,359.4816133990055,51.39335783132169
2026-09-29 20:42:14.857255680,0.07421533203125,-0.076609375,10.19144091796875,0.0,0.0,-0.0010652644360316954,1.074505323238071,359.4816890421911,51.39259823723139
2026-09-29 20:42:14.857255680,0.043092773437499995,-0.07421533203125,10.256080078124999,0.0,0.0,-0.0021305288720633907,1.0723702123970194,359.48186046173157,51.39153777177346
2026-09-29 20:42:14.876106496,0.067033203125,-0.055062988281249996,10.244109863281249,0.0,0.0010652644360316954,-0.0010652644360316954,1.0696745919167046,359.48258492602656,51.39079042915538
2026-09-29 20:42:14.889360640,0.09336767578124999,-0.10533789062499999,10.198623046875,0.0,0.0,0.0,1.0665801989771937,359.4830846987275,51.39065147365542
2026-09-29 20:42:14.893428992,0.06463916015625,-0.10533789062499999,10.198623046875,0.0,0.0,0.0,1.0636787988716374,359.4831658570314,51.390815619065066
2026-09-29 20:42:14.920006912,0.04548681640625,-0.047880859374999994,10.227351562499999,0.0,0.0,0.0,1.0610009757653363,359.48289926692934,51.390356347076555
2026-09-29 20:42:14.927209984,0.07900341796874999,-0.08379150390625,10.19144091796875,0.0,0.0,-0.0021305288720633907,1.0584518655447133,359.48278458711445,51.38898615601416
2026-09-29 20:42:14.944825600,0.043092773437499995,-0.055062988281249996,10.16989453125,0.0,-0.0010652644360316954,-0.0021305288720633907,1.0554888069597566,359.4825945609013,51.38792203527611
2026-09-29 20:42:14.950366464,0.09336767578124999,-0.06463916015625,10.22016943359375,0.0,-0.0010652644360316954,0.0,1.052488038389696,359.4830280885477,51.38747135021234
2026-09-29 20:42:14.950366464,0.09336767578124999,-0.08618554687499999,10.236927734375,0.0,0.0,-0.0010652644360316954,1.0492590313113812,359.4834467519618,51.38672312202734
2026-09-29 20:42:14.958375936,0.05266894531249999,-0.076609375,10.205805175781249,0.0,-0.0010652644360316954,-0.0010652644360316954,1.0464015366918158,359.48309908914007,51.38565810681183
2026-09-29 20:42:14.966399488,0.0383046875,-0.08379150390625,10.196229003906248,0.0,0.0,-0.0010652644360316954,1.042951937668726,359.4835406919023,51.38490631494239
2026-09-29 20:42:14.970021632,0.06942724609374999,-0.076609375,10.150742187499999,0.0,0.0,-0.0010652644360316954,1.0400162227069243,359.4841518485242,51.384158147454706
2026-09-29 20:42:14.998167552,0.055062988281249996,-0.047880859374999994,10.227351562499999,-0.0010652644360316954,0.0,-0.0010652644360316954,1.0367312501991643,359.48430975288625,51.38340490453486
2026-09-29 20:42:15.013791744,0.07182128906249999,-0.0909736328125,10.19144091796875,0.0,0.0,0.0,1.0340726213570506,359.48485327099405,51.382654354436724
2026-09-29 20:42:15.013791744,0.059851074218749994,-0.05027490234375,10.17707666015625,0.0,0.0,-0.0010652644360316954,1.0309298765001425,359.48499123344726,51.38220775311596
2026-09-29 20:42:15.013791744,0.0622451171875,-0.08618554687499999,10.234533691406249,0.0,-0.0021305288720633907,0.0,1.0281690165692075,359.48461466072996,51.38235690417037
2026-09-29 20:42:15.013791744,0.0622451171875,-0.07900341796874999,10.227351562499999,0.0,0.0,-0.0010652644360316954,1.0254783099077607,359.485069511497,51.38160923344639
2026-09-29 20:42:15.029416448,0.08618554687499999,-0.0335166015625,10.20819921875,0.0,0.0,0.0,1.0230117504991196,359.4851419788901,51.38115918053194
2026-09-29 20:42:15.045072128,0.07421533203125,-0.07900341796874999,10.18665283203125,0.0,0.0,-0.0021305288720633907,1.0210813117688256,359.4855720801107,51.38010237308816
2026-09-29 20:42:15.060700416,0.0622451171875,-0.08618554687499999,10.196229003906248,0.0,0.0,-0.0010652644360316954,1.0185721900754943,359.48598739579484,51.379658245903606
2026-09-29 20:42:15.076291328,0.06942724609374999,-0.0909736328125,10.155530273437499,0.0,0.0,-0.0010652644360316954,1.015811850667138,359.4859929493877,51.379205489879254
2026-09-29 20:42:15.091915264,0.0622451171875,-0.1005498046875,10.229745605468748,0.0,0.0,-0.0021305288720633907,1.013108060062069,359.48644372373974,51.37814733570298
2026-09-29 20:42:15.101081344,0.0813974609375,-0.0622451171875,10.155530273437499,0.0,-0.0010652644360316954,0.0,1.0099998635164578,359.4865944682777,51.377700183390324
2026-09-29 20:42:15.102101504,0.08379150390625,-0.05266894531249999,10.217775390624999,0.0,0.0,-0.0010652644360316954,1.0068671209561078,359.48686635596283,51.37694550275702
2026-09-29 20:42:15.139198976,0.05266894531249999,-0.05745703125,10.22016943359375,0.0,0.0,-0.0010652644360316954,1.0038109724679642,359.4868239414912,51.37618471901139
2026-09-29 20:42:15.170871552,0.076609375,-0.07182128906249999,10.244109863281249,0.0,0.0,-0.0010652644360316954,1.0015023336900124,359.48652389764936,51.37511772507889
2026-09-29 20:42:15.170871552,0.08618554687499999,-0.09336767578124999,10.1746826171875,0.0,-0.0010652644360316954,0.0,0.9988748336652707,359.4864782062027,51.37466111843995
2026-09-29 20:42:15.170871552,0.08857958984374999,-0.07900341796874999,10.1938349609375,-0.0010652644360316954,-0.0010652644360316954,-0.0021305288720633907,0.9956452952403919,359.48590849822426,51.373591596072316
2026-09-29 20:42:15.174924288,0.06942724609374999,-0.11012597656249999,10.198623046875,0.0,-0.0010652644360316954,-0.0010652644360316954,0.9926537852489212,359.48510447386246,51.37251480344555
2026-09-29 20:42:15.176230656,0.05266894531249999,-0.05745703125,10.2034111328125,0.0,0.0,-0.0010652644360316954,0.990361638283675,359.48502216252973,51.37175562789889
2026-09-29 20:42:15.179456256,0.035910644531249994,-0.07421533203125,10.18186474609375,0.0,0.0,-0.0010652644360316954,0.987865985171947,359.48565335896467,51.37130852864191
2026-09-29 20:42:15.181850880,0.09815576171875,-0.047880859374999994,10.196229003906248,0.0,0.0,-0.0010652644360316954,0.985129307937898,359.48595553194576,51.37055310731162
2026-09-29 20:42:15.186647808,0.06942724609374999,-0.028728515625,10.236927734375,0.0,0.0010652644360316954,-0.0010652644360316954,0.9828390830095948,359.4863223793815,51.369801658299565
2026-09-29 20:42:15.202953984,0.08379150390625,-0.08379150390625,10.16989453125,0.0,0.0,-0.0010652644360316954,0.9807278160982915,359.4865609176742,51.36904325108205
2026-09-29 20:42:15.219400192,0.04069873046875,-0.055062988281249996,10.236927734375,-0.0010652644360316954,-0.0010652644360316954,-0.0010652644360316954,0.9779168145367085,359.4862629526439,51.36828325320188
2026-09-29 20:42:15.219400192,0.06942724609374999,-0.07182128906249999,10.205805175781249,0.0,0.0,-0.0010652644360316954,0.9757445488286638,359.48637064372787,51.367215241591424
2026-09-29 20:42:15.235966976,0.08379150390625,-0.0813974609375,10.196229003906248,0.0,0.0,0.0,0.9724861404853726,359.4867656631948,51.36707455082334
2026-09-29 20:42:15.252683776,0.0813974609375,-0.11012597656249999,10.217775390624999,0.0,0.0,-0.0010652644360316954,0.9701654045448854,359.4863229517384,51.36630772981929
2026-09-29 20:42:15.265195520,0.09815576171875,-0.0813974609375,10.263262207031248,0.0,0.0,-0.0021305288720633907,0.9671585787971738,359.4867832106244,51.36494983521832
2026-09-29 20:42:15.265195520,0.021546386718749998,-0.08379150390625,10.1938349609375,0.0,0.0,-0.0010652644360316954,0.9647251169232857,359.48621089474983,51.36418937287554
2026-09-29 20:42:15.269293056,0.035910644531249994,-0.07182128906249999,10.157924316406248,0.0,0.0,-0.0010652644360316954,0.962205281168661,359.4864000152482,51.363739853876645
2026-09-29 20:42:15.269293056,0.055062988281249996,-0.055062988281249996,10.160318359375,0.0,-0.0010652644360316954,-0.0010652644360316954,0.9595254071057959,359.4868027657499,51.36298397242085
2026-09-29 20:42:15.300630016,0.0335166015625,-0.047880859374999994,10.1746826171875,0.0,0.0,-0.0021305288720633907,0.9569901816695189,359.4874003286382,51.36162171124703
2026-09-29 20:42:15.300630016,0.026334472656249996,-0.0622451171875,10.13158984375,0.0,0.0,-0.0010652644360316954,0.954698562909873,359.487532741026,51.36116503986663
2026-09-29 20:42:15.320849664,0.035910644531249994,-0.10294384765624999,10.189046874999999,0.0,-0.0010652644360316954,-0.0021305288720633907,0.9524379752818972,359.48759773736685,51.35979290471257
2026-09-29 20:42:15.344751104,0.0909736328125,-0.0622451171875,10.2034111328125,0.0,0.0,-0.0021305288720633907,0.9499503080415402,359.48817046448335,51.358432882033895
2026-09-29 20:42:15.369458176,0.067033203125,-0.067033203125,10.229745605468748,0.0,0.0,-0.0021305288720633907,0.9476245372034844,359.4881004677187,51.35676117871775
2026-09-29 20:42:15.385997056,0.076609375,-0.07421533203125,10.1651064453125,0.0,0.0,-0.0010652644360316954,0.9454168030245486,359.4882128240473,51.356003768528765
2026-09-29 20:42:15.385997056,0.06463916015625,-0.0909736328125,10.18665283203125,0.0,-0.0010652644360316954,-0.0010652644360316954,0.9426838512805487,359.4879335483514,51.35554834958443
2026-09-29 20:42:15.385997056,0.04069873046875,-0.08379150390625,10.198623046875,0.0,0.0,-0.0010652644360316954,0.9398767774393225,359.4881715579394,51.35509875584523
2026-09-29 20:42:15.385997056,0.03112255859375,-0.06942724609374999,10.196229003906248,0.0,0.0,0.0,0.9371024961580808,359.48855412036886,51.35464871212218
2026-09-29 20:42:15.385997056,0.059851074218749994,-0.05745703125,10.21538134765625,0.0,-0.0021305288720633907,-0.0021305288720633907,0.934272196701737,359.48775985907815,51.35326894184834
2026-09-29 20:42:15.402887680,0.028728515625,-0.06942724609374999,10.1746826171875,0.0,0.0,-0.0021305288720633907,0.93173720678322,359.4875451786536,51.352201594373014
2026-09-29 20:42:15.408812032,0.05266894531249999,-0.055062988281249996,10.222563476562499,0.0,0.0,0.0,0.929496768810546,359.48806818235073,51.35205974616794
2026-09-29 20:42:15.412324864,0.06942724609374999,-0.055062988281249996,10.145954101562499,0.0,0.0,0.0,0.9273015673899467,359.48866286617806,51.35191744370118
2026-09-29 20:42:15.437956352,0.09336767578124999,-0.067033203125,10.184258789062499,0.0010652644360316954,0.0,-0.0021305288720633907,0.9258019479124404,359.4890558803507,51.35085902157322
2026-09-29 20:42:15.438887424,0.08857958984374999,-0.08379150390625,10.229745605468748,0.0,0.0,-0.0010652644360316954,0.9236177244598812,359.48854596585176,51.3497913268044
2026-09-29 20:42:15.463336192,0.07182128906249999,-0.06942724609374999,10.212987304687498,0.0010652644360316954,0.0,-0.0010652644360316954,0.921867081931885,359.48936038494423,51.34904511629632
2026-09-29 20:42:15.487608832,0.07900341796874999,-0.076609375,10.20819921875,0.0,0.0,-0.0010652644360316954,0.919438738798109,359.4891412153434,51.34797961456045
2026-09-29 20:42:15.511285760,0.067033203125,-0.07182128906249999,10.22016943359375,0.0,-0.0010652644360316954,-0.0010652644360316954,0.9171273793146401,359.48878083627415,51.34752345543928
2026-09-29 20:42:15.519292928,0.059851074218749994,-0.08379150390625,10.21059326171875,0.0,0.0,0.0,0.9145775007920655,359.48875519199885,51.34707157669813
2026-09-29 20:42:15.568158464,0.067033203125,-0.05027490234375,10.212987304687498,0.0,0.0,-0.0010652644360316954,0.9121578419750532,359.4893887173168,51.34662606545119
2026-09-29 20:42:15.595440384,0.06463916015625,-0.0622451171875,10.160318359375,0.0,0.0,-0.0010652644360316954,0.9097002039192189,359.4898899987793,51.34617820764877
2026-09-29 20:42:15.611178496,0.055062988281249996,-0.07900341796874999,10.20819921875,0.0,0.0,0.0,0.9075694709384942,359.4904145762507,51.345730118954314
2026-09-29 20:42:15.611178496,0.067033203125,-0.0813974609375,10.217775390624999,0.0,0.0,-0.0021305288720633907,0.9054062619023352,359.4909624086304,51.344672001891944
2026-09-29 20:42:15.611178496,0.067033203125,-0.07182128906249999,10.172288574218749,0.0,0.0,0.0,0.902575334835465,359.4916807973003,51.34453454060528
2026-09-29 20:42:15.642427392,0.067033203125,-0.09336767578124999,10.184258789062499,0.0,-0.0010652644360316954,-0.0021305288720633907,0.8994979288453736,359.49128892623247,51.34315961992344
2026-09-29 20:42:15.642427392,0.055062988281249996,-0.06463916015625,10.201017089843749,0.0,0.0,0.0,0.8968006569644448,359.4918128776051,51.342713745373324
2026-09-29 20:42:15.642427392,0.0813974609375,-0.07421533203125,10.22016943359375,0.0,0.0,-0.0010652644360316954,0.8945218453646919,359.49211483327844,51.34195687479375
2026-09-29 20:42:15.642427392,0.04548681640625,-0.0622451171875,10.21538134765625,0.0010652644360316954,0.0,-0.0010652644360316954,0.892760856799566,359.49228640801783,51.34119813634095
2026-09-29 20:42:15.642427392,0.09576171874999999,-0.0335166015625,10.1746826171875,0.0010652644360316954,0.0,-0.0010652644360316954,0.8906582613844106,359.4924708200432,51.340439664876335
2026-09-29 20:42:15.642427392,0.047880859374999994,-0.05266894531249999,10.24889794921875,0.0,0.0,0.0,0.8884434379934075,359.49325642710875,51.33999409951037
2026-09-29 20:42:15.658052608,0.067033203125,-0.10294384765624999,10.1938349609375,0.0,0.0,-0.0010652644360316954,0.8859331831048198,359.4937070030486,51.33924124732585
2026-09-29 20:42:15.658052608,0.05266894531249999,-0.07900341796874999,10.179470703124998,0.0,0.0,-0.0010652644360316954,0.8829367214940693,359.49426182960644,51.33818488329299
2026-09-29 20:42:15.658052608,0.0622451171875,-0.07421533203125,10.11483154296875,0.0,0.0,0.0,0.8800095462143338,359.4955008030345,51.338052757642274
2026-09-29 20:42:15.658052608,0.067033203125,-0.04069873046875,10.22495751953125,0.0,0.0,-0.0010652644360316954,0.877439341283151,359.49584430911773,51.33729554242199
2026-09-29 20:42:15.658052608,0.04069873046875,-0.05745703125,10.2321396484375,0.0,0.0,-0.0010652644360316954,0.8746368262969999,359.4970231227064,51.33685688020903
2026-09-29 20:42:15.658052608,0.05745703125,-0.055062988281249996,10.189046874999999,0.0,0.0010652644360316954,-0.0010652644360316954,0.8721206163135493,359.49803214950066,51.3361085374564
2026-09-29 20:42:15.658052608,0.07421533203125,-0.055062988281249996,10.22495751953125,0.0,0.0,-0.0010652644360316954,0.8699675362086011,359.498402624884,51.33535501106036
2026-09-29 20:42:15.658052608,0.059851074218749994,-0.05027490234375,10.1938349609375,0.0,0.0,-0.0021305288720633907,0.8670802512530947,359.49889571522516,51.334297432217774
2026-09-29 20:42:15.658052608,0.06942724609374999,-0.06463916015625,10.150742187499999,0.0,0.0,0.0,0.8638775902264957,359.4996685657238,51.333852040470795
2026-09-29 20:42:15.702098688,0.04548681640625,-0.05266894531249999,10.201017089843749,0.0,0.0010652644360316954,0.0,0.8613174085779466,359.5007257156439,51.333716162174774
2026-09-29 20:42:15.702098688,0.06942724609374999,-0.10294384765624999,10.19144091796875,0.0,0.0,0.0,0.8588823684848044,359.5016182900319,51.33362893462903
2026-09-29 20:42:15.733348096,0.023940429687499997,-0.07421533203125,10.189046874999999,0.0,0.0,0.0,0.8561316021838657,359.50217644926806,51.333896754515386
2026-09-29 20:42:15.764599296,0.0383046875,-0.035910644531249994,10.198623046875,0.0,-0.0010652644360316954,-0.0010652644360316954,0.8531776992745829,359.5025114802036,51.333854022334094
2026-09-29 20:42:15.811472384,0.07421533203125,-0.09815576171875,10.184258789062499,0.0,0.0,0.0,0.8506704529810315,359.5030042240936,51.33411243563342
2026-09-29 20:42:15.811472384,0.05266894531249999,-0.0813974609375,10.141166015624998,-0.0010652644360316954,0.0,0.0,0.8466670514438979,359.50396291820823,51.334389452307455
2026-09-29 20:42:15.827099648,0.0622451171875,-0.0622451171875,10.122013671875,0.0,0.0,0.0,0.8438846349017569,359.5049470773502,51.33465921698945
2026-09-29 20:42:15.871099136,0.07900341796874999,-0.08857958984374999,10.217775390624999,-0.0010652644360316954,0.0,0.0,0.8406767836736107,359.505496106195,51.33492539694106
2026-09-29 20:42:15.871813632,0.047880859374999994,-0.0813974609375,10.2417158203125,0.0,0.0,0.0,0.8377098536070822,359.50585431007954,51.33488700456462
2026-09-29 20:42:15.872284672,0.0047880859375,-0.0622451171875,10.179470703124998,0.0,0.0,0.0,0.8346167807354572,359.50702708863025,51.33485594954339
2026-09-29 20:42:15.872284672,0.0622451171875,-0.0622451171875,10.095679199218749,0.0,0.0,0.0,0.8316137892101307,359.50834567690043,51.3348241173391
2026-09-29 20:42:15.903472384,0.0813974609375,-0.09576171874999999,10.14834814453125,0.0,0.0,0.0,0.8286378047790832,359.50892872613224,51.33478300378967
2026-09-29 20:42:15.903472384,0.047880859374999994,-0.07421533203125,10.160318359375,0.0,0.0,-0.0010652644360316954,0.8261478396550576,359.5094674919348,51.33413273887836
2026-09-29 20:42:15.903472384,0.04548681640625,-0.08857958984374999,10.2034111328125,0.0,0.0,0.0,0.8236647412819069,359.50990698283164,51.33408826573586
2026-09-29 20:42:15.957843200,0.08379150390625,-0.0909736328125,10.212987304687498,0.0,0.0010652644360316954,-0.0010652644360316954,0.8213215193762599,359.5108541375214,51.33374619850292
2026-09-29 20:42:15.958844928,0.08379150390625,-0.07182128906249999,10.21059326171875,0.0,0.0,0.0,0.8195315097100597,359.5107584930414,51.334001666508435
2026-09-29 20:42:15.958942208,0.055062988281249996,-0.05745703125,10.16989453125,-0.0010652644360316954,0.0,0.0,0.8160723962355432,359.51076496684135,51.33456787274352
2026-09-29 20:42:15.997249024,0.047880859374999994,-0.0813974609375,10.212987304687498,0.0,-0.0021305288720633907,0.0,0.8138042348033334,359.5105352837618,51.334822283603536
2026-09-29 20:42:15.998255616,0.05745703125,-0.0813974609375,10.256080078124999,0.0,0.0,0.0,0.8112937095791408,359.5112007531216,51.33569779376507
2026-09-29 20:42:16.000126720,0.043092773437499995,-0.08379150390625,10.150742187499999,0.0,0.0,0.0,0.8090695213582408,359.5118619695609,51.33596304012919
2026-09-29 20:42:16.000126720,0.067033203125,-0.0813974609375,10.20819921875,0.0,0.0010652644360316954,0.0,0.8068682772294765,359.51283681035056,51.33623234531243
2026-09-29 20:42:16.002725376,0.01915234375,-0.07182128906249999,10.1651064453125,0.0,-0.0010652644360316954,0.0,0.8044403245113069,359.5131368397967,51.33649246938403
2026-09-29 20:42:16.002725376,0.03112255859375,-0.076609375,10.21538134765625,0.0,-0.0010652644360316954,0.0,0.8020503053685186,359.51366284703033,51.33644698173513
2026-09-29 20:42:16.002725376,0.0335166015625,-0.05266894531249999,10.14834814453125,0.0,0.0,0.0,0.799313002709892,359.5144526282726,51.33671559279865
2026-09-29 20:42:16.006731264,0.076609375,-0.07182128906249999,10.167500488281249,0.0,0.0,0.0,0.7973897781652316,359.5149599426067,51.33667290694766
2026-09-29 20:42:16.006731264,0.08618554687499999,-0.035910644531249994,10.26565625,0.0,0.0,0.0,0.7946323425851173,359.51512377027433,51.33662783749092
2026-09-29 20:42:16.006731264,0.067033203125,-0.07421533203125,10.20819921875,0.0,0.0,0.0,0.7923535098166946,359.5152232418405,51.33658137779016
2026-09-29 20:42:16.006731264,0.04548681640625,-0.09815576171875,10.239321777343749,0.0,0.0,0.0,0.7894511815665564,359.515378778144,51.336537531291775
2026-09-29 20:42:16.014738944,0.047880859374999994,-0.04069873046875,10.189046874999999,0.0,-0.0010652644360316954,0.0,0.7866473915315284,359.515593574774,51.33679386273214
2026-09-29 20:42:16.014738944,0.03112255859375,-0.06463916015625,10.138771972656249,0.0,0.0,0.0,0.7839191325259723,359.51594750681636,51.33613569421471
2026-09-29 20:42:16.014738944,0.059851074218749994,-0.067033203125,10.2321396484375,0.0,0.0,0.0,0.7817063592232669,359.51624666368036,51.33578598651311
2026-09-29 20:42:16.014738944,0.09576171874999999,-0.1005498046875,10.179470703124998,0.0,0.0,-0.0010652644360316954,0.779149370391519,359.51672584511607,51.335135875992
2026-09-29 20:42:16.022740480,0.067033203125,-0.10294384765624999,10.198623046875,0.0,-0.0010652644360316954,0.0,0.7762112452684438,359.51658408474793,51.33508817955494
2026-09-29 20:42:16.024563200,0.07182128906249999,-0.05745703125,10.15313623046875,0.0,0.0,0.0,0.7737171071195477,359.51725094285956,51.335051719846305
2026-09-29 20:42:16.030829312,0.00239404296875,-0.0622451171875,10.16989453125,0.0,0.0,0.0,0.7712442158955761,359.5171453894362,51.33500258608821
2026-09-29 20:42:16.036116224,0.067033203125,-0.055062988281249996,10.217775390624999,0.0,0.0,0.0,0.7685068514450407,359.51797719144366,51.33526659236477
2026-09-29 20:42:16.036116224,0.05027490234375,-0.055062988281249996,10.189046874999999,0.0,0.0,0.0,0.7665362089581769,359.51823673856785,51.33583032540612
2026-09-29 20:42:16.086764800,0.035910644531249994,-0.067033203125,10.20819921875,0.0,0.0,0.0,0.7642334260132048,359.5185150011214,51.33578393332932
2026-09-29 20:42:16.086764800,0.026334472656249996,-0.0622451171875,10.16989453125,0.0,0.0,0.0,0.7615903676292389,359.51958851534863,51.33575001091846
2026-09-29 20:42:16.133722880,0.05027490234375,-0.1149140625,10.160318359375,0.0,0.0,0.0,0.7590711108399562,359.52018489941435,51.33631974046612
2026-09-29 20:42:16.134738688,0.05745703125,-0.06463916015625,10.1938349609375,0.0,0.0,0.0,0.7566230720472104,359.52030159982866,51.33627441000589
2026-09-29 20:42:16.134738688,0.08379150390625,-0.0622451171875,10.150742187499999,0.0,0.0,0.0,0.7541497762673826,359.5207852743972,51.336536119083675
2026-09-29 20:42:16.135769856,0.09336767578124999,-0.0813974609375,10.16989453125,0.0,0.0,-0.0010652644360316954,0.7523401759270649,359.52106190516764,51.336187076638545
2026-09-29 20:42:16.173546752,0.08857958984374999,-0.07182128906249999,10.21538134765625,0.0,-0.0010652644360316954,0.0,0.7499489046314813,359.5212804703766,51.336145298314555
2026-09-29 20:42:16.173546752,0.059851074218749994,-0.09815576171875,10.189046874999999,0.0,0.0,-0.0010652644360316954,0.7470032308132876,359.5215459301347,51.33580045099888
2026-09-29 20:42:16.220423424,0.023940429687499997,-0.07182128906249999,10.157924316406248,0.0,0.0,-0.0010652644360316954,0.7446393112902607,359.52180618790334,51.335449343511186
2026-09-29 20:42:16.220423424,0.06463916015625,-0.10533789062499999,10.184258789062499,0.0,0.0,0.0,0.7419176047010039,359.52246072998304,51.33540778571746
2026-09-29 20:42:16.220423424,0.13885449218749998,-0.07182128906249999,10.263262207031248,0.0,-0.0010652644360316954,0.0,0.7391727210726224,359.5227974713985,51.33536627595182
2026-09-29 20:42:16.236048384,0.055062988281249996,-0.055062988281249996,10.14834814453125,0.0,0.0,0.0,0.7367692219891521,359.52207460707893,51.33562177108476
2026-09-29 20:42:16.236048384,0.047880859374999994,-0.08618554687499999,10.1938349609375,0.0,0.0,0.0,0.7343135545897893,359.52294931981896,51.33588690585739
2026-09-29 20:42:16.236048384,0.06463916015625,-0.07421533203125,10.21538134765625,0.0,-0.0010652644360316954,0.0,0.7319480625894591,359.52316660089826,51.33553575399789
2026-09-29 20:42:16.236048384,0.067033203125,-0.08857958984374999,10.189046874999999,0.0,0.0,0.0,0.729902746294196,359.5237940409044,51.335798778520136
2026-09-29 20:42:16.236048384,0.05266894531249999,-0.076609375,10.184258789062499,0.0,-0.0010652644360316954,0.0,0.7271535035375616,359.5243540679112,51.33575721601187
2026-09-29 20:42:16.236048384,0.055062988281249996,-0.035910644531249994,10.260868164062499,0.0,0.0,0.0,0.7248693160448381,359.52446003946955,51.33601562956301
2026-09-29 20:42:16.236048384,0.08618554687499999,-0.07421533203125,10.2417158203125,0.0,-0.0010652644360316954,0.0,0.7226009694752016,359.5243861057348,51.33596240763419
2026-09-29 20:42:16.236048384,0.06942724609374999,-0.06942724609374999,10.222563476562499,0.0,0.0,0.0,0.7202565749306123,359.52440154888967,51.33622135533203
2026-09-29 20:42:16.236048384,0.05266894531249999,-0.11012597656249999,10.172288574218749,0.0,0.0010652644360316954,0.0,0.7178852186468482,359.5254244080981,51.33618673339555
2026-09-29 20:42:16.298547456,0.09336767578124999,-0.08379150390625,10.246503906249998,0.0,-0.0010652644360316954,0.0,0.7146978275510419,359.5256085949742,51.33613844476237
2026-09-29 20:42:16.298547456,0.05266894531249999,-0.0813974609375,10.2704443359375,0.0,0.0,0.0,0.7126666780282219,359.52582177179073,51.336092064262715
2026-09-29 20:42:16.298547456,0.04069873046875,-0.0909736328125,10.227351562499999,0.0,0.0,0.0,0.7102106802467533,359.526442760976,51.33635318944743
2026-09-29 20:42:16.298547456,0.09336767578124999,-0.067033203125,10.212987304687498,0.0,0.0,0.0,0.7077371910641316,359.5266942239461,51.336307843631126
2026-09-29 20:42:16.361108224,0.055062988281249996,-0.0813974609375,10.20819921875,0.0,-0.0010652644360316954,0.0,0.7052122084467606,359.52659213953615,51.336870887460265
2026-09-29 20:42:16.361108224,0.076609375,-0.1005498046875,10.28241455078125,0.0,-0.0010652644360316954,-0.0010652644360316954,0.7024710597129129,359.52617968792725,51.33681796028325
2026-09-29 20:42:16.407920896,0.06942724609374999,-0.07182128906249999,10.26565625,0.0,0.0,-0.0010652644360316954,0.699648213229001,359.52641527040254,51.33646800165758
2026-09-29 20:42:16.407920896,0.0383046875,-0.09815576171875,10.11961962890625,0.0,-0.0010652644360316954,0.0,0.6968482511543925,359.5263498132169,51.33641690496295
2026-09-29 20:42:16.407920896,0.023940429687499997,-0.1149140625,10.157924316406248,0.0,0.0,0.0,0.6944240946811733,359.5267004721019,51.336371305805656
2026-09-29 20:42:16.407920896,0.035910644531249994,-0.055062988281249996,10.263262207031248,0.0,0.0,0.0,0.6918745991245867,359.5273445143396,51.33663551631877
2026-09-29 20:42:16.454796032,0.035910644531249994,-0.09336767578124999,10.11004345703125,0.0,0.0,0.0,0.6894341844576839,359.52776777902153,51.33658742890135
2026-09-29 20:42:16.454796032,0.09576171874999999,-0.11252001953124999,10.17707666015625,0.0,0.0,0.0,0.6873979393508569,359.5283660671682,51.33654474469235
2026-09-29 20:42:16.454796032,0.04069873046875,-0.0909736328125,10.212987304687498,0.0,0.0,0.0,0.6852599425895524,359.52855628214945,51.336804259880594
2026-09-29 20:42:16.454796032,0.05266894531249999,-0.08857958984374999,10.239321777343749,0.0,0.0,-0.0010652644360316954,0.6828267390383627,359.5286596386905,51.33644985631975
2026-09-29 20:42:16.470421760,0.06463916015625,-0.08857958984374999,10.196229003906248,0.0,0.0,0.0,0.6802452427419248,359.5285984161153,51.336704462161144
2026-09-29 20:42:16.470421760,0.06463916015625,-0.07182128906249999,10.2034111328125,0.0,0.0,0.0,0.6779260901486244,359.52880412658345,51.33665792655307
2026-09-29 20:42:16.470421760,0.05745703125,-0.08379150390625,10.15313623046875,0.0,0.0010652644360316954,0.0,0.6760081970838968,359.5300518708725,51.336926568151384
2026-09-29 20:42:16.470421760,0.11012597656249999,-0.10294384765624999,10.251291992187499,0.0,0.0,0.0,0.6739146056660006,359.5302777644417,51.33688050638497
2026-09-29 20:42:16.470421760,0.07182128906249999,-0.055062988281249996,10.179470703124998,0.0,0.0,0.0,0.6714541523107893,359.5304735547425,51.336838610083596
2026-09-29 20:42:16.470421760,0.055062988281249996,-0.07900341796874999,10.18186474609375,0.0,-0.0010652644360316954,0.0,0.6695881878569591,359.5303183399556,51.33678722637715
2026-09-29 20:42:16.470421760,0.05745703125,-0.07421533203125,10.217775390624999,0.0,0.0,0.0,0.6680060822397494,359.53062617094855,51.33673953447232
2026-09-29 20:42:16.470421760,0.0813974609375,-0.1005498046875,10.2417158203125,0.0,0.0,0.0,0.6656631841884809,359.53176405708865,51.33731404227466
2026-09-29 20:42:16.470421760,0.028728515625,-0.055062988281249996,10.2034111328125,0.0,-0.0010652644360316954,0.0,0.6630143535991267,359.5318312509131,51.33726750290725
2026-09-29 20:42:16.470421760,0.04548681640625,-0.067033203125,10.15313623046875,0.0,0.0,0.0,0.6609415579187173,359.53143339640974,51.337211782709595
2026-09-29 20:42:16.470421760,0.06942724609374999,-0.04548681640625,10.17707666015625,0.0,0.0010652644360316954,-0.0010652644360316954,0.658720209657522,359.53230994844216,51.33686619703968
2026-09-29 20:42:16.548551680,0.043092773437499995,-0.06942724609374999,10.157924316406248,0.0,0.0,-0.0010652644360316954,0.6566061964722487,359.5325501435618,51.33651267000172
2026-09-29 20:42:16.548551680,0.09336767578124999,-0.0909736328125,10.2321396484375,0.0,-0.0010652644360316954,0.0,0.6544773034496879,359.5327113829105,51.33707123041955
2026-09-29 20:42:16.548551680,0.05027490234375,-0.05745703125,10.234533691406249,0.0,0.0,0.0,0.6520454820101363,359.5322315951901,51.33732715642182
2026-09-29 20:42:16.548551680,0.01915234375,-0.04548681640625,10.22016943359375,0.0,0.0,0.0,0.6502447179635331,359.53245672627327,51.33727867804919
2026-09-29 20:42:16.611044352,0.0383046875,-0.026334472656249996,10.25368603515625,0.0,0.0,0.0,0.6485219040862757,359.5327003980198,51.33783643865027
2026-09-29 20:42:16.611044352,0.07900341796874999,-0.05745703125,10.18665283203125,0.0,0.0,0.0,0.646421297613371,359.53286498641904,51.33748277552715
2026-09-29 20:42:16.673544448,0.05027490234375,-0.05266894531249999,10.268050292968748,0.0,0.0,0.0,0.6443945429729181,359.5329024788883,51.33743357583874
2026-09-29 20:42:16.736043520,0.07182128906249999,-0.06942724609374999,10.078920898437499,0.0,0.0010652644360316954,-0.0010652644360316954,0.6425571205846398,359.5338121827198,51.336779536508125
2026-09-29 20:42:16.736043520,0.043092773437499995,-0.09815576171875,10.205805175781249,0.0,0.0,0.0,0.6401212334628855,359.5342140437151,51.33673460185197
2026-09-29 20:42:16.736043520,0.08379150390625,-0.05027490234375,10.222563476562499,0.0,0.0,0.0,0.6377610379550409,359.53435072794286,51.336993340598504
2026-09-29 20:42:16.736043520,0.067033203125,-0.059851074218749994,10.17707666015625,0.0,-0.0010652644360316954,-0.0010652644360316954,0.6358442744994178,359.53405080216095,51.33632966247254
2026-09-29 20:42:16.736043520,0.06463916015625,-0.0813974609375,10.162712402343749,0.0,0.0,0.0,0.6343709445738481,359.5336732634284,51.33627438061028
2026-09-29 20:42:16.736043520,0.09815576171875,-0.076609375,10.21538134765625,0.0,0.0,0.0,0.6331382757611543,359.53386724757377,51.33622612327245
2026-09-29 20:42:16.736043520,0.04548681640625,-0.0335166015625,10.244109863281249,0.0,-0.0010652644360316954,0.0,0.6310266971412312,359.53355661839765,51.33647952151358
2026-09-29 20:42:16.736043520,0.0622451171875,-0.0813974609375,10.20819921875,0.0,0.0,0.0,0.6288255320229154,359.53414842156945,51.33673793069853
2026-09-29 20:42:16.736043520,0.067033203125,-0.09815576171875,10.21059326171875,0.0,-0.0010652644360316954,0.0,0.6264026382398709,359.5342437693835,51.337296601461574
2026-09-29 20:42:16.736043520,0.07421533203125,-0.08618554687499999,10.205805175781249,0.0,0.0,0.0,0.6244914484351015,359.53411781591967,51.337554204989374
2026-09-29 20:42:16.736043520,0.067033203125,-0.076609375,10.24889794921875,0.0010652644360316954,0.0,0.0,0.6234209085900784,359.53430858962696,51.337812308583594
2026-09-29 20:42:16.736043520,0.067033203125,-0.059851074218749994,10.13158984375,0.0,0.0,0.0,0.621153150643019,359.53462314004275,51.338073665059376
2026-09-29 20:42:16.736043520,0.0335166015625,-0.08379150390625,10.117225585937499,0.0010652644360316954,0.0,0.0,0.6202059378581382,359.5349023127319,51.33802565932855
2026-09-29 20:42:16.751695872,0.009576171875,-0.07900341796874999,10.227351562499999,0.0,0.0,0.0,0.6185943726026435,359.53518356501365,51.337978071122755
2026-09-29 20:42:16.751695872,0.0622451171875,-0.05745703125,10.268050292968748,0.0,0.0,0.0,0.6167346355798837,359.53608280740815,51.337933338980456
2026-09-29 20:42:16.751695872,0.07900341796874999,-0.0335166015625,10.21538134765625,0.0,0.0,0.0,0.6147326939615733,359.53651213871063,51.33819235084477
2026-09-29 20:42:16.751695872,0.07182128906249999,-0.067033203125,10.2034111328125,0.0,0.0,0.0,0.6133685944892106,359.5369824005285,51.33784090128939
2026-09-29 20:42:16.751695872,0.055062988281249996,-0.07421533203125,10.246503906249998,0.0,-0.0010652644360316954,0.0,0.611033225409848,359.5369872800097,51.337791843945695
2026-09-29 20:42:16.751695872,0.05266894531249999,-0.10533789062499999,10.234533691406249,0.0,0.0,0.0,0.6088985721359449,359.5376436463629,51.33774675260668
2026-09-29 20:42:16.751695872,0.06942724609374999,-0.059851074218749994,10.167500488281249,0.0,0.0,0.0,0.6063745618050521,359.5378185088162,51.33769898733937
2026-09-29 20:42:16.814375168,0.0335166015625,-0.0383046875,10.222563476562499,0.0,0.0,0.0,0.6042682870520292,359.53846341554873,51.337958743754996
2026-09-29 20:42:16.876874752,0.059851074218749994,-0.10533789062499999,10.22495751953125,0.0,-0.0021305288720633907,0.0,0.6026618796170896,359.5381181680688,51.338207286165485
2026-09-29 20:42:16.876874752,0.09336767578124999,-0.06942724609374999,10.179470703124998,0.0,0.0,0.0,0.6005849842881068,359.5387399584302,51.33846930148251
2026-09-29 20:42:16.876874752,0.04548681640625,-0.059851074218749994,10.196229003906248,0.0,0.0,0.0,0.5985955273358263,359.53877129824446,51.338114571306846
2026-09-29 20:42:16.986670848,0.067033203125,-0.05027490234375,10.167500488281249,0.0,0.0,0.0,0.5966083446168372,359.53917714769284,51.33837017695197
2026-09-29 20:42:16.986670848,0.05027490234375,-0.08618554687499999,10.212987304687498,0.0,0.0,0.0,0.5950082652022675,359.539212716684,51.33862505161278
2026-09-29 20:42:16.986670848,0.026334472656249996,-0.06942724609374999,10.160318359375,0.0,-0.0010652644360316954,-0.0010652644360316954,0.5926606598385318,359.53925373702054,51.33826762920412
2026-09-29 20:42:16.986670848,0.06942724609374999,-0.07182128906249999,10.239321777343749,0.0,0.0,0.0,0.5902761352854318,359.539100376879,51.33851757228565
2026-09-29 20:42:16.986670848,0.08379150390625,-0.06463916015625,10.21059326171875,0.0,0.0,0.0,0.5889438370963299,359.53926271760344,51.33816253523198
2026-09-29 20:42:16.986670848,0.05266894531249999,-0.124490234375,10.172288574218749,0.0,0.0,0.0,0.5868820818353442,359.5397270418021,51.33811668846743
2026-09-29 20:42:17.002297088,0.021546386718749998,-0.1005498046875,10.227351562499999,0.0,0.0,0.0,0.5846060241298008,359.54036290403855,51.3377698580067
2026-09-29 20:42:17.002297088,0.08857958984374999,-0.06942724609374999,10.212987304687498,0.0,-0.0010652644360316954,0.0,0.5824204512271065,359.5402012014104,51.3377155778758
2026-09-29 20:42:17.002297088,0.09576171874999999,-0.026334472656249996,10.64152099609375,0.006391586616190171,0.0,0.0,0.5820063373562085,359.5385846210455,51.33765583231293
2026-09-29 20:42:17.002297088,0.03112255859375,-0.08857958984374999,9.9257021484375,0.0,0.0,-0.0010652644360316954,0.5782847897494731,359.5394839482506,51.33700146167614
2026-09-29 20:42:17.002297088,0.06942724609374999,-0.059851074218749994,10.35423583984375,0.004261057744126781,0.0021305288720633907,0.0,0.5768442843376685,359.5392283944648,51.33664657477892
2026-09-29 20:42:17.002297088,0.13646044921875,-0.15321875,10.256080078124999,-0.0021305288720633907,-0.0031957933080950856,0.0,0.573908000147659,359.53937487726307,51.33628669404988
2026-09-29 20:42:17.002297088,0.01675830078125,-0.13646044921875,10.229745605468748,-0.007456851052221867,-0.0021305288720633907,0.0,0.5718095552505968,359.53890732004106,51.33623498274796
2026-09-29 20:42:17.002297088,0.06463916015625,-0.10533789062499999,9.990341308593749,-0.005326322180158476,0.0021305288720633907,-0.0010652644360316954,0.5692869802391763,359.5400510170859,51.33619642674941
2026-09-29 20:42:17.002297088,0.076609375,-0.06942724609374999,10.07652685546875,0.0,0.0,0.0,0.5680512284837068,359.5401733054911,51.33645337027554
2026-09-29 20:42:17.002297088,0.01915234375,-0.04069873046875,10.196229003906248,0.0031957933080950856,0.0021305288720633907,0.0,0.5668795724660677,359.54116226808543,51.33671878120516
2026-09-29 20:42:17.002297088,0.0813974609375,-0.05745703125,10.217775390624999,0.0,-0.0010652644360316954,0.0,0.5651126518008437,359.54140019580615,51.337277126729084
2026-09-29 20:42:17.002297088,0.04069873046875,-0.1149140625,10.157924316406248,0.0,-0.0010652644360316954,0.0,0.5629002470935801,359.5412356142227,51.33722389841725
2026-09-29 20:42:17.096044032,0.05745703125,-0.0383046875,10.18186474609375,0.0010652644360316954,0.0,-0.0010652644360316954,0.5616027063337662,359.5418040139395,51.33656889081016
2026-09-29 20:42:17.175250176,0.059851074218749994,-0.10773193359375,10.100467285156249,-0.0010652644360316954,-0.0010652644360316954,0.0,0.5570381095235163,359.54207835974773,51.33646640407877
2026-09-29 20:42:17.175250176,0.07421533203125,-0.08857958984374999,10.198623046875,0.0,0.0,0.0,0.5552388854322039,359.5422603030808,51.336417581710954
2026-09-29 20:42:17.175250176,0.05266894531249999,-0.08857958984374999,10.222563476562499,-0.0010652644360316954,-0.0010652644360316954,0.0,0.5536258917436432,359.54218936975303,51.33636441851518
2026-09-29 20:42:17.175250176,0.07182128906249999,-0.11252001953124999,10.229745605468748,0.0,-0.0010652644360316954,0.0,0.5516124771570503,359.542183980415,51.336006895816496
2026-09-29 20:42:17.175250176,0.0813974609375,-0.059851074218749994,10.162712402343749,0.0021305288720633907,0.0,0.0,0.5500770259649731,359.54262053437674,51.335658695028656
2026-09-29 20:42:17.175250176,0.05027490234375,-0.076609375,10.1938349609375,0.0,-0.0010652644360316954,0.0,0.5480017717909831,359.54167118102964,51.33560110081006
2026-09-29 20:42:17.175250176,0.035910644531249994,-0.09576171874999999,10.2704443359375,0.0010652644360316954,0.0,0.0,0.5467645192195631,359.5422176394379,51.335860772105995
2026-09-29 20:42:17.237393664,0.10294384765624999,-0.12688427734375,10.157924316406248,-0.0010652644360316954,-0.0010652644360316954,0.0,0.5442344754348808,359.5421205027892,51.33611523861408
2026-09-29 20:42:17.237393664,0.04548681640625,-0.055062988281249996,10.133983886718749,0.0,0.0,0.0,0.5424890286122818,359.5420205950988,51.336066109295245
2026-09-29 20:42:17.237393664,0.07421533203125,-0.07421533203125,10.244109863281249,0.0,-0.0010652644360316954,0.0,0.5404179691935765,359.54270732155845,51.33632274546517
2026-09-29 20:42:17.315523328,0.07182128906249999,-0.04548681640625,10.18186474609375,0.0,0.0,0.0,0.5390869400063178,359.5431526614547,51.33627562207111
2026-09-29 20:42:17.315523328,0.08857958984374999,-0.10533789062499999,10.227351562499999,0.0,0.0,0.0,0.5373372308059358,359.5429179578637,51.33622113294811
2026-09-29 20:42:17.315523328,0.05266894531249999,-0.07182128906249999,10.145954101562499,0.0,0.0,-0.0010652644360316954,0.5356184506426509,359.54323242664094,51.33586954506854
2026-09-29 20:42:17.315523328,0.0622451171875,-0.1149140625,10.217775390624999,0.0010652644360316954,0.0,0.0,0.5344592100290374,359.54359392353985,51.33581805876264
2026-09-29 20:42:17.315523328,0.035910644531249994,-0.055062988281249996,10.167500488281249,0.0,0.0,0.0,0.5324767392267645,359.54387870340116,51.335770826485216
2026-09-29 20:42:17.315523328,0.04069873046875,-0.0813974609375,10.145954101562499,0.0,0.0,-0.0010652644360316954,0.5309972675560377,359.54514058118065,51.33542292896473
2026-09-29 20:42:17.315523328,0.055062988281249996,-0.09336767578124999,10.201017089843749,-0.0010652644360316954,-0.0010652644360316954,0.0,0.5289896221030903,359.54518963982184,51.335373276413215
2026-09-29 20:42:17.315523328,0.08618554687499999,-0.076609375,10.150742187499999,0.0,0.0010652644360316954,0.0,0.5265714225319035,359.5463164161373,51.33533306815554
2026-09-29 20:42:17.315523328,0.08379150390625,-0.06463916015625,10.22016943359375,0.0,-0.0010652644360316954,0.0,0.5251261532665484,359.54604820871583,51.3352809886016
2026-09-29 20:42:17.315523328,0.06942724609374999,-0.06463916015625,10.19144091796875,0.0,0.0,0.0,0.5230676765535218,359.546377484496,51.33553726435676
2026-09-29 20:42:17.315523328,0.06942724609374999,-0.10773193359375,10.196229003906248,-0.0010652644360316954,0.0,0.0,0.5208691351659444,359.54637316730293,51.33579193510575
2026-09-29 20:42:17.315523328,0.0622451171875,-0.1005498046875,10.160318359375,-0.0010652644360316954,-0.0021305288720633907,0.0,0.518110980848714,359.5457191741981,51.33573780721236
2026-09-29 20:42:17.315523328,0.10773193359375,-0.055062988281249996,10.275232421875,0.0,-0.0021305288720633907,0.0,0.5162534731697515,359.5453184421514,51.335989111843105
2026-09-29 20:42:17.315523328,0.047880859374999994,-0.09336767578124999,10.155530273437499,0.0,0.0,0.0,0.5142116447600188,359.5456290152735,51.33594258663063
2026-09-29 20:42:17.315523328,0.04548681640625,-0.09336767578124999,10.189046874999999,0.0,0.0,0.0,0.5128471958896426,359.54578303092063,51.335892751988084
2026-09-29 20:42:17.315523328,0.076609375,-0.10294384765624999,10.217775390624999,0.0,0.0,0.0,0.5107345248922348,359.54627110632265,51.33615193578024
2026-09-29 20:42:17.315523328,0.07421533203125,-0.05027490234375,10.167500488281249,0.0,-0.0021305288720633907,0.0,0.5084683814454446,359.54588672216454,51.33609919241393
2026-09-29 20:42:17.315523328,0.10294384765624999,-0.08857958984374999,10.198623046875,0.0,-0.0010652644360316954,0.0010652644360316954,0.5066399135384284,359.54509441829504,51.33695559125614
2026-09-29 20:42:17.331149568,0.05027490234375,-0.047880859374999994,10.244109863281249,0.0,0.0,0.0,0.5043799919548297,359.5450626741453,51.337516000373476
2026-09-29 20:42:17.409271808,0.05027490234375,-0.1149140625,10.263262207031248,0.0,0.0,0.0,0.5026978527826912,359.54548698400276,51.3374638209032
2026-09-29 20:42:17.409271808,0.04548681640625,-0.05027490234375,10.2417158203125,0.0,0.0,-0.0010652644360316954,0.5005946373831835,359.54598304233065,51.33711253787808
2026-09-29 20:42:17.409271808,0.10294384765624999,-0.067033203125,10.1651064453125,0.0,-0.0010652644360316954,0.0,0.4985602381376828,359.5456913369471,51.33705543948124
2026-09-29 20:42:17.487397888,0.07900341796874999,-0.08379150390625,10.236927734375,0.0,0.0,0.0,0.49678491814343756,359.54551840821483,51.337004031278724
2026-09-29 20:42:17.487397888,0.05027490234375,-0.08379150390625,10.2034111328125,0.0,0.0,0.0,0.494806266824509,359.54574084050745,51.337567179874924
2026-09-29 20:42:17.487397888,0.06942724609374999,-0.08857958984374999,10.236927734375,0.0,0.0,0.0,0.4933529477793673,359.54588335866123,51.3378208283751
2026-09-29 20:42:17.581147904,0.07182128906249999,-0.076609375,10.1938349609375,0.0,0.0,-0.0010652644360316954,0.4912034852342368,359.546421402206,51.33716240781104
2026-09-29 20:42:17.581147904,0.04548681640625,-0.0622451171875,10.189046874999999,0.0,0.0,0.0,0.4894008634429045,359.5468448516013,51.33711378809398
2026-09-29 20:42:17.643647488,0.0909736328125,-0.07421533203125,10.1746826171875,0.0,-0.0010652644360316954,0.0,0.4876728358522389,359.5469568317293,51.33705930985169
2026-09-29 20:42:17.660692736,0.026334472656249996,-0.09336767578124999,10.18665283203125,0.0,0.0,0.0,0.48584996618039833,359.5476005429273,51.33731853071106
2026-09-29 20:42:17.660692736,0.076609375,-0.05027490234375,10.21538134765625,0.0,0.0,0.0,0.48428256899631617,359.54818056989393,51.33726769024218
2026-09-29 20:42:17.660692736,0.06463916015625,-0.067033203125,10.205805175781249,0.0,0.0,0.0,0.48218610371869636,359.5485713336894,51.337524022031864
2026-09-29 20:42:17.660692736,0.055062988281249996,-0.04548681640625,10.198623046875,0.0,-0.0010652644360316954,0.0,0.48096961541740907,359.54856654037155,51.33746796547897
2026-09-29 20:42:17.660692736,0.035910644531249994,-0.07900341796874999,10.24889794921875,0.0,0.0,0.0,0.4801406855155144,359.5481379616064,51.33741103658717
2026-09-29 20:42:17.660692736,0.04548681640625,-0.07182128906249999,10.222563476562499,0.0,0.0,0.0,0.47856957871788935,359.54858608707355,51.33736023579734
2026-09-29 20:42:17.660692736,0.07900341796874999,-0.07900341796874999,10.18186474609375,0.0,0.0,0.0,0.47705334207597494,359.5490700388755,51.33761675873861
2026-09-29 20:42:17.675048704,0.0909736328125,-0.06942724609374999,10.22495751953125,0.0010652644360316954,0.0,0.0,0.4754139534320049,359.5495791292612,51.33757166514451
2026-09-29 20:42:17.675048704,0.067033203125,-0.06463916015625,10.2034111328125,0.0010652644360316954,0.0010652644360316954,0.0,0.47448650814707755,359.5502566241361,51.338136132750925
2026-09-29 20:42:17.675048704,-0.0047880859375,-0.06942724609374999,10.18665283203125,0.0,0.0,0.0,0.473055137478998,359.55076144621574,51.33869719391831
2026-09-29 20:42:17.768804352,0.04069873046875,-0.07182128906249999,10.1746826171875,0.0,0.0,0.0,0.4711268113465537,359.5522331246522,51.33895952132499
2026-09-29 20:42:17.768804352,0.067033203125,-0.09336767578124999,10.201017089843749,0.0,0.0010652644360316954,0.0,0.4696181081493355,359.55295598604346,51.33921850307214
2026-09-29 20:42:17.768804352,0.0813974609375,-0.124490234375,10.22495751953125,0.0,-0.0010652644360316954,0.0,0.46740472016514784,359.55295319706664,51.33947309798325
2026-09-29 20:42:17.768804352,0.059851074218749994,-0.07421533203125,10.20819921875,0.0,-0.0010652644360316954,0.0,0.46526266929181564,359.5532018413015,51.33972940116062
2026-09-29 20:42:17.768804352,0.03112255859375,-0.06942724609374999,10.17707666015625,0.0,0.0,0.0,0.46375175302703414,359.55339751278956,51.339678098605695
2026-09-29 20:42:17.862557184,0.04069873046875,-0.10294384765624999,10.201017089843749,0.0,0.0,0.0,0.4625602622431822,359.5532496256053,51.33962421488681
2026-09-29 20:42:17.862557184,0.055062988281249996,-0.05266894531249999,10.16989453125,0.0,0.0,0.0,0.46105378148152015,359.5535523354043,51.33957289694558
2026-09-29 20:42:17.862557184,0.06463916015625,-0.076609375,10.1938349609375,0.0,0.0,0.0,0.4596025307505221,359.55310763725373,51.33982132494079
2026-09-29 20:42:17.862557184,0.035910644531249994,-0.06463916015625,10.201017089843749,0.0010652644360316954,0.0,0.0,0.45842921964653643,359.5537500798673,51.34038497048605
2026-09-29 20:42:17.971929344,0.0622451171875,-0.07182128906249999,10.167500488281249,0.0,0.0,0.0,0.4565945121016136,359.5543778325918,51.3409466698261
2026-09-29 20:42:17.971929344,0.08379150390625,-0.07182128906249999,10.1746826171875,0.0,0.0,0.0,0.45475551960327726,359.55447899139733,51.34089543998194
2026-09-29 20:42:17.971929344,0.0622451171875,-0.067033203125,10.229745605468748,0.0,0.0010652644360316954,0.0,0.4533164478590873,359.55513388438254,51.3411535458507
2026-09-29 20:42:17.971929344,0.07182128906249999,-0.07900341796874999,10.222563476562499,0.0,0.0,0.0,0.4517196468295358,359.55542187978403,51.34110295199336
2026-09-29 20:42:18.081424896,0.055062988281249996,-0.1005498046875,10.21059326171875,0.0010652644360316954,0.0,0.0,0.45087010600336475,359.5557349385612,51.34105356315523
2026-09-29 20:42:18.081424896,0.06463916015625,-0.067033203125,10.17707666015625,0.0,0.0,0.0,0.4492908052222825,359.5555538139095,51.34130560690231
2026-09-29 20:42:18.081424896,0.076609375,-0.047880859374999994,10.172288574218749,0.0,0.0,0.0,0.44755805035894347,359.5556532931816,51.34125359096611
2026-09-29 20:42:18.081424896,0.08379150390625,-0.08618554687499999,10.229745605468748,0.0,-0.0010652644360316954,0.0,0.4459780178891471,359.55558119061095,51.340895365988956
2026-09-29 20:42:18.081424896,0.07421533203125,-0.06942724609374999,10.179470703124998,-0.0010652644360316954,-0.0010652644360316954,0.0,0.4437279097787681,359.5558901590407,51.34145786901882
2026-09-29 20:42:18.081424896,0.04548681640625,-0.067033203125,10.21538134765625,0.0,-0.0010652644360316954,0.0,0.44159219442914255,359.55548850203945,51.341404176641994
2026-09-29 20:42:18.081424896,0.07421533203125,-0.07182128906249999,10.260868164062499,0.0,-0.0010652644360316954,0.0,0.44020644146493704,359.5548851818932,51.341347087927794
2026-09-29 20:42:18.081424896,0.055062988281249996,-0.10533789062499999,10.2034111328125,0.0,0.0,0.0,0.4387551361468893,359.5553591182,51.341297662386495
2026-09-29 20:42:18.081424896,0.0813974609375,-0.07182128906249999,10.1938349609375,0.0,0.0,0.0,0.4370956502727714,359.5556324772847,51.34124750090237
2026-09-29 20:42:18.081424896,0.06463916015625,-0.076609375,10.196229003906248,0.0,0.0,0.0,0.4357010794309141,359.5558239141741,51.34150032503359
2026-09-29 20:42:18.081424896,0.059851074218749994,-0.04548681640625,10.184258789062499,0.0,0.0,0.0,0.43434171726763776,359.5560847720016,51.341142707947576
2026-09-29 20:42:18.081424896,0.076609375,-0.07421533203125,10.21059326171875,0.0,0.0,0.0,0.4330510132095247,359.5562739589822,51.34108956046935
2026-09-29 20:42:18.097058048,0.05027490234375,-0.10533789062499999,10.198623046875,0.0,0.0,0.0,0.43116717843969665,359.55617577888097,51.340731282807525
2026-09-29 20:42:18.222412544,0.067033203125,-0.06463916015625,10.184258789062499,0.0,-0.0010652644360316954,0.0,0.4288344533866354,359.5562871126887,51.34068149679136
2026-09-29 20:42:18.222412544,0.05745703125,-0.055062988281249996,10.160318359375,0.0,0.0,0.0,0.42728679394598,359.5567927310813,51.340937759515995
2026-09-29 20:42:18.222412544,0.06942724609374999,-0.0813974609375,10.22495751953125,0.0,-0.0010652644360316954,-0.0010652644360316954,0.4257740691927083,359.5569157935317,51.34057890350357
2026-09-29 20:42:18.582084608,0.08857958984374999,-0.076609375,10.236927734375,0.0,0.0,-0.0010652644360316954,0.4243561270793597,359.5574695485862,51.33991885018907
2026-09-29 20:42:18.597679360,0.07182128906249999,-0.04548681640625,10.18665283203125,0.0,0.0,0.0,0.4226072143894023,359.5575828320705,51.339561777391076
2026-09-29 20:42:18.597679360,0.043092773437499995,-0.067033203125,10.201017089843749,0.0,0.0,0.0,0.4213494352454636,359.5570654857534,51.33980916979551
2026-09-29 20:42:18.597679360,0.011970214843749999,-0.10533789062499999,10.157924316406248,0.0,-0.0010652644360316954,-0.0010652644360316954,0.4196632386861281,359.5574572172916,51.33914653359725
2026-09-29 20:42:18.597679360,0.021546386718749998,-0.076609375,10.229745605468748,0.0,0.0,0.0,0.4182046833215554,359.55811033694357,51.338791752138164
2026-09-29 20:42:18.597679360,0.059851074218749994,-0.067033203125,10.19144091796875,0.0,0.0,-0.0010652644360316954,0.4166550030018945,359.5590949571461,51.338440014336896
2026-09-29 20:42:18.613309696,0.05266894531249999,-0.04069873046875,10.201017089843749,0.0,-0.0021305288720633907,-0.0010652644360316954,0.41497770225962793,359.5587142705289,51.33777292466862
2026-09-29 20:42:18.753968128,0.09576171874999999,-0.076609375,10.160318359375,0.0,0.0,0.0,0.413560829419337,359.5589649914342,51.33802358801723
2026-09-29 20:42:18.753968128,0.04548681640625,-0.043092773437499995,10.22016943359375,0.0,0.0,0.0,0.41196441670070655,359.559133375979,51.3382777953864
2026-09-29 20:42:18.753968128,0.08379150390625,-0.07900341796874999,10.217775390624999,0.0,0.0,0.0,0.4103037303950908,359.55938595110933,51.33822519462707
2026-09-29 20:42:18.753968128,0.07182128906249999,-0.0909736328125,10.205805175781249,0.0,0.0010652644360316954,0.0,0.40855242997449825,359.56035164009876,51.338484890316494
2026-09-29 20:42:18.753968128,0.076609375,-0.10294384765624999,10.196229003906248,0.0,0.0,0.0,0.40720461188154045,359.5604291001587,51.33843213280473
2026-09-29 20:42:18.753968128,0.0909736328125,-0.076609375,10.189046874999999,0.0,0.0,0.0,0.4059283913876352,359.56076863268925,51.33838108907207
2026-09-29 20:42:18.753968128,0.026334472656249996,-0.07421533203125,10.22495751953125,0.0,0.0,0.0,0.40422498533659096,359.5614535562299,51.338638195248556
2026-09-29 20:42:18.894586368,0.0813974609375,-0.10533789062499999,10.201017089843749,0.0,0.0,0.0,0.4024834584911167,359.5621203770233,51.33919851996713
2026-09-29 20:42:18.894586368,0.05027490234375,-0.10294384765624999,10.21538134765625,0.0010652644360316954,0.0,0.0,0.4015323049453584,359.56203596031384,51.339147346577015
2026-09-29 20:42:18.894586368,0.05745703125,-0.1005498046875,10.172288574218749,0.0,-0.0010652644360316954,0.0,0.4001697909997977,359.5612723786458,51.33939588883669
2026-09-29 20:42:19.082791680,0.07900341796874999,-0.05027490234375,10.22016943359375,0.0,0.0,0.0,0.3985066545033399,359.5614497910155,51.33965076193425
2026-09-29 20:42:19.083662336,0.0622451171875,-0.08857958984374999,10.229745605468748,0.0010652644360316954,0.0010652644360316954,-0.0010652644360316954,0.39735470180916477,359.5617960689865,51.33899071063365
2026-09-29 20:42:19.208432384,0.0813974609375,-0.0813974609375,10.2417158203125,0.0,0.0,0.0,0.3952748228306856,359.5619352681691,51.33893883401672
2026-09-29 20:42:19.224057088,0.05745703125,-0.05266894531249999,10.2321396484375,0.0,0.0,0.0,0.39400201128420775,359.56207606192714,51.33919276216528
2026-09-29 20:42:19.224057088,0.055062988281249996,-0.09576171874999999,10.21059326171875,0.0,0.0,0.0,0.39278718300957305,359.5627475847026,51.33914305663497
2026-09-29 20:42:19.224057088,0.05745703125,-0.09576171874999999,10.184258789062499,0.0,0.0,0.0,0.39169625054600815,359.56281471237526,51.33939586974329
2026-09-29 20:42:19.239684864,0.059851074218749994,-0.08857958984374999,10.189046874999999,0.0,0.0,-0.0010652644360316954,0.3898040608025358,359.5630765878877,51.33873668240614
2026-09-29 20:42:19.239684864,0.09576171874999999,-0.0622451171875,10.179470703124998,0.0,0.0,0.0,0.3882955972908451,359.56290847359327,51.338683125832844
2026-09-29 20:42:19.239684864,0.043092773437499995,-0.07900341796874999,10.227351562499999,-0.0010652644360316954,-0.0010652644360316954,0.0,0.3864550141367348,359.5627129650014,51.33893454362462
2026-09-29 20:42:19.317805824,0.035910644531249994,-0.076609375,10.145954101562499,0.0,0.0010652644360316954,-0.0010652644360316954,0.384863022713172,359.5636915876943,51.33827515297284
2026-09-29 20:42:19.317805824,0.07182128906249999,-0.09336767578124999,10.229745605468748,0.0,0.0,0.0,0.3834847402705302,359.56417886951647,51.33852972765251
2026-09-29 20:42:19.317805824,0.06942724609374999,-0.124490234375,10.150742187499999,0.0010652644360316954,0.0,0.0,0.3821459438047934,359.56451507356644,51.33847894104716
2026-09-29 20:42:19.317805824,0.055062988281249996,-0.05745703125,10.15313623046875,0.0,0.0010652644360316954,-0.0010652644360316954,0.3804301998644757,359.5650051836678,51.33843312456471
2026-09-29 20:42:19.395930880,0.059851074218749994,-0.0909736328125,10.141166015624998,0.0,0.0,0.0,0.37913769754410637,359.56508135699255,51.33868509098555
2026-09-29 20:42:19.489679104,0.09336767578124999,-0.09576171874999999,10.19144091796875,0.0,0.0,0.0,0.37759934730440803,359.5652516733021,51.33863358303849
2026-09-29 20:42:19.567783680,0.07900341796874999,-0.08857958984374999,10.234533691406249,0.0,0.0,0.0,0.3761684862988584,359.5648404639397,51.33857928560604
2026-09-29 20:42:19.567783680,0.06463916015625,-0.067033203125,10.172288574218749,0.0,0.0,0.0,0.37509611177389607,359.5650338326021,51.33822352376468
2026-09-29 20:42:19.567783680,0.059851074218749994,-0.09336767578124999,10.212987304687498,0.0,0.0,0.0,0.3736027538951596,359.56486189028686,51.33816750337318
2026-09-29 20:42:19.567783680,0.05027490234375,-0.08857958984374999,10.16989453125,0.0,0.0,-0.0010652644360316954,0.3723148584902595,359.5646558640644,51.33750202445938
2026-09-29 20:42:19.583319040,0.05266894531249999,-0.11012597656249999,10.227351562499999,0.0,0.0,0.0,0.37122718623254025,359.564844967729,51.337144439537184
2026-09-29 20:42:19.583319040,0.059851074218749994,-0.06942724609374999,10.20819921875,0.0,-0.0010652644360316954,0.0,0.3699940433977339,359.5643201342112,51.33678396758624
2026-09-29 20:42:19.583319040,0.08379150390625,-0.055062988281249996,10.16989453125,0.0,0.0,0.0,0.3684435291751663,359.5647610247731,51.33673233688399
2026-09-29 20:42:19.583319040,0.04069873046875,-0.07182128906249999,10.196229003906248,0.0,0.0,0.0,0.36688434728899144,359.56465561352036,51.33667875580165
2026-09-29 20:42:19.598939392,0.05266894531249999,-0.06942724609374999,10.217775390624999,0.0,0.0,0.0,0.36564668529356303,359.5646949050491,51.33662312082047
2026-09-29 20:42:19.614564608,0.043092773437499995,-0.06463916015625,10.236927734375,0.0,0.0,0.0,0.3644581404165195,359.56530275049556,51.33718151477975
2026-09-29 20:42:19.630188288,0.04548681640625,-0.0909736328125,10.179470703124998,0.0,0.0,0.0,0.3632326797674121,359.56609918733903,51.3374368687924
2026-09-29 20:42:19.630188288,0.08379150390625,-0.10533789062499999,10.1651064453125,0.0010652644360316954,0.0,-0.0010652644360316954,0.361991888693125,359.5665094966982,51.33708036363646
2026-09-29 20:42:19.645813248,0.026334472656249996,-0.07421533203125,10.18665283203125,0.0,0.0,-0.0010652644360316954,0.36050200105310526,359.5667910610587,51.336420325096825
2026-09-29 20:42:19.645813248,0.0622451171875,-0.10294384765624999,10.198623046875,0.0,0.0,-0.0010652644360316954,0.35915930277774544,359.5672132699524,51.33606231979606
2026-09-29 20:42:19.677068032,0.03112255859375,-0.0622451171875,10.24889794921875,0.0,0.0,0.0,0.35769687671527106,359.56732988404235,51.33601024199731
2026-09-29 20:42:19.677068032,0.0383046875,-0.05027490234375,10.212987304687498,0.0010652644360316954,0.0,0.0,0.3568008866376806,359.5675370353913,51.33656660552322
2026-09-29 20:42:19.697231104,0.0383046875,-0.11730810546874999,10.20819921875,0.0,-0.0010652644360316954,0.0,0.3552088993093496,359.5671499626208,51.336508985122364
2026-09-29 20:42:19.697231104,0.09336767578124999,-0.059851074218749994,10.227351562499999,0.0,0.0,0.0,0.3531979059386284,359.56759852169125,51.336460663265065
2026-09-29 20:42:19.697231104,0.05266894531249999,-0.07421533203125,10.222563476562499,0.0,0.0,-0.0010652644360316954,0.35172238056884503,359.5671734165102,51.33609937998687
2026-09-29 20:42:19.697231104,0.059851074218749994,-0.05745703125,10.21059326171875,0.0,0.0,0.0,0.3500717076253908,359.56767443179234,51.336353559604966
2026-09-29 20:42:19.697231104,0.05745703125,-0.06463916015625,10.14834814453125,0.0,0.0,0.0,0.34922324729634385,359.5675779360144,51.336297359796156
2026-09-29 20:42:19.697231104,0.05027490234375,-0.047880859374999994,10.2034111328125,0.0,0.0,0.0,0.34795351844937045,359.5681822509068,51.336245608845864
2026-09-29 20:42:19.708737536,0.047880859374999994,-0.11730810546874999,10.212987304687498,0.0,-0.0010652644360316954,-0.0010652644360316954,0.34681885894743414,359.5678442777049,51.33618932396052
2026-09-29 20:42:19.708737536,0.07900341796874999,-0.0813974609375,10.198623046875,0.0010652644360316954,0.0,0.0,0.3456333381865674,359.56805219023903,51.33613740016799
2026-09-29 20:42:19.708737536,0.047880859374999994,-0.09576171874999999,10.260868164062499,0.0,0.0,0.0,0.34426260658153957,359.5682166883102,51.33638977664561
2026-09-29 20:42:19.708737536,0.0622451171875,-0.07900341796874999,10.18665283203125,0.0,0.0,0.0,0.34244172538178247,359.56907315167564,51.33664688052428
2026-09-29 20:42:19.708737536,0.09815576171875,-0.07900341796874999,10.201017089843749,0.0,0.0,0.0,0.34172496424938487,359.5696483786593,51.33689861881289
2026-09-29 20:42:19.708737536,0.09336767578124999,-0.055062988281249996,10.16989453125,0.0,0.0,0.0,0.34056123190481674,359.56978804496924,51.33684609017654
2026-09-29 20:42:19.708737536,0.1149140625,-0.09336767578124999,10.236927734375,0.0,0.0010652644360316954,0.0,0.3394361630550969,359.5704652135369,51.337405504421554
2026-09-29 20:42:19.739993600,0.06463916015625,-0.07182128906249999,10.217775390624999,0.0,0.0,0.0,0.33806539407251035,359.57029801273484,51.33735273152264
2026-09-29 20:42:19.755618048,0.03112255859375,-0.07182128906249999,10.263262207031248,0.0,-0.0010652644360316954,0.0,0.3365372141710724,359.56997202954113,51.3372970773293
2026-09-29 20:42:19.766503680,0.055062988281249996,-0.04069873046875,10.19144091796875,0.0,0.0,0.0,0.3350883665609269,359.5702425547156,51.33754778452213
2026-09-29 20:42:19.766503680,0.047880859374999994,-0.06942724609374999,10.244109863281249,0.0,0.0,0.0,0.3338836280030586,359.5707475453451,51.337800689157326
2026-09-29 20:42:19.787139584,0.0622451171875,-0.07421533203125,10.201017089843749,0.0,0.0,0.0,0.33278823441973854,359.57072461746435,51.33774400997309
2026-09-29 20:42:19.787139584,0.0622451171875,-0.07421533203125,10.184258789062499,0.0,0.0,0.0,0.33089941891888647,359.5709412632429,51.33769056677514
2026-09-29 20:42:19.787139584,0.05027490234375,-0.05745703125,10.196229003906248,0.0,0.0,0.0,0.32940036686876684,359.5714340272391,51.3376381680249
2026-09-29 20:42:19.808624640,0.04548681640625,-0.067033203125,10.22016943359375,0.0,0.0,0.0,0.32791495592896264,359.57192390420227,51.33789085838025
2026-09-29 20:42:19.814258432,0.0622451171875,-0.07421533203125,10.1938349609375,0.0,0.0,0.0,0.3263273976391662,359.57192649502474,51.337837295941945
2026-09-29 20:42:19.814258432,0.06942724609374999,-0.09336767578124999,10.2417158203125,0.0,0.0010652644360316954,0.0,0.3251140795692035,359.5724819117477,51.33809423695261
2026-09-29 20:42:19.815262976,0.05745703125,-0.059851074218749994,10.20819921875,0.0,0.0,0.0,0.32375399872362093,359.5725493623283,51.33834654043737
2026-09-29 20:42:19.816282624,0.07182128906249999,-0.09576171874999999,10.234533691406249,0.0,0.0,0.0,0.3226500311496807,359.57241500302894,51.338595099025845
2026-09-29 20:42:19.817300992,0.07182128906249999,-0.08618554687499999,10.21538134765625,0.0,-0.0010652644360316954,0.0,0.32070510882356174,359.5726023499413,51.338238626175794
2026-09-29 20:42:19.817300992,0.09336767578124999,-0.0622451171875,10.18186474609375,0.0,-0.0010652644360316954,0.0,0.3188116528029206,359.5722431928841,51.338488622094346
2026-09-29 20:42:19.818320640,0.10294384765624999,-0.09336767578124999,10.217775390624999,0.0,0.0,0.0,0.3173242185328851,359.57220157703694,51.33843435900705
2026-09-29 20:42:19.818320640,0.07182128906249999,-0.067033203125,10.189046874999999,0.0,0.0,-0.0010652644360316954,0.31575847726749284,359.5716461739079,51.33837913615288
2026-09-29 20:42:19.818320640,0.059851074218749994,-0.08379150390625,10.2034111328125,0.0,-0.0010652644360316954,0.0,0.31419366814094335,359.5716190410549,51.33863071055021
2026-09-29 20:42:19.818320640,0.09815576171875,-0.11012597656249999,10.18665283203125,0.0,0.0,0.0,0.31286071476237604,359.572030437653,51.33857928265857
2026-09-29 20:42:19.818320640,0.05027490234375,-0.08379150390625,10.201017089843749,0.0,0.0,0.0,0.31114301007855155,359.57217647744824,51.33883539535379
2026-09-29 20:42:19.818320640,0.05266894531249999,-0.07421533203125,10.17707666015625,0.0,-0.0010652644360316954,0.0,0.3094433784198651,359.5723891143656,51.338782683426
2026-09-29 20:42:19.818320640,0.076609375,-0.08618554687499999,10.234533691406249,0.0,0.0,0.0,0.3081319515725278,359.57267560643606,51.33903467776408
2026-09-29 20:42:19.818320640,0.0813974609375,-0.08379150390625,10.20819921875,0.0,0.0,0.0,0.3061960747573922,359.5725438450998,51.33928673192173
2026-09-29 20:42:19.818320640,0.04548681640625,-0.055062988281249996,10.201017089843749,0.0,0.0,0.0,0.3049937754157908,359.5733206196133,51.33984627947658
2026-09-29 20:42:19.818320640,0.06463916015625,-0.07421533203125,10.22495751953125,0.0,0.0,0.0,0.3038075540469185,359.5734763909475,51.34009728216256
2026-09-29 20:42:19.818320640,0.05027490234375,-0.035910644531249994,10.263262207031248,0.0,0.0,0.0,0.30288906919517805,359.5732478454661,51.340346951875965
2026-09-29 20:42:19.833952768,0.09815576171875,-0.059851074218749994,10.1363779296875,0.0,0.0,0.0,0.3015512468288779,359.57331567179074,51.33998653169798
2026-09-29 20:42:19.849576448,0.04069873046875,-0.10294384765624999,10.21059326171875,0.0,-0.0010652644360316954,0.0,0.30074692197200037,359.5726495013691,51.33992848806225
2026-09-29 20:42:19.849576448,0.0622451171875,-0.06942724609374999,10.1938349609375,0.0,0.0010652644360316954,0.0,0.2994248656732002,359.5735790311437,51.33987853161804
2026-09-29 20:42:19.849576448,0.047880859374999994,-0.08857958984374999,10.212987304687498,0.0,-0.0010652644360316954,0.0,0.2982367035133634,359.5729253719233,51.34012627929052
2026-09-29 20:42:19.865200896,0.08618554687499999,-0.07900341796874999,10.205805175781249,0.0,0.0,0.0,0.2969727945995733,359.5723293511876,51.34006950774819
2026-09-29 20:42:19.865200896,0.055062988281249996,-0.10294384765624999,10.196229003906248,0.0,-0.0010652644360316954,0.0,0.2952486947983668,359.5722360782944,51.34001476242705
2026-09-29 20:42:19.865200896,0.07182128906249999,-0.055062988281249996,10.244109863281249,0.0,0.0,0.0,0.2941386886606347,359.57231382730964,51.33996005998722
2026-09-29 20:42:19.865200896,0.06463916015625,-0.076609375,10.244109863281249,0.0,0.0,0.0,0.293108789483961,359.5721075220112,51.33959953197688
2026-09-29 20:42:19.880827392,0.0383046875,-0.059851074218749994,10.19144091796875,0.0,0.0,0.0,0.2917467606583654,359.5721079210199,51.339849594902965
2026-09-29 20:42:19.896453120,0.08379150390625,-0.05266894531249999,10.198623046875,0.0,0.0,0.0,0.29023214079842324,359.5729159178946,51.33979869214699
2026-09-29 20:42:19.896453120,0.0383046875,-0.08618554687499999,10.2034111328125,0.0,-0.0010652644360316954,0.0,0.28888934875365185,359.5726084614193,51.340046970765115
2026-09-29 20:42:19.896453120,0.059851074218749994,-0.09576171874999999,10.201017089843749,0.0,-0.0010652644360316954,0.0,0.28737754216351324,359.5730294542904,51.34029819369138
2026-09-29 20:42:19.896453120,0.0622451171875,-0.1005498046875,10.205805175781249,0.0,0.0,-0.0010652644360316954,0.28605919438305405,359.5736125249902,51.33994139288079
2026-09-29 20:42:19.896453120,0.0813974609375,-0.0813974609375,10.141166015624998,0.0010652644360316954,0.0,-0.0010652644360316954,0.2849950103778442,359.57401019597427,51.3395849672008
2026-09-29 20:42:19.896453120,0.08379150390625,-0.10533789062499999,10.184258789062499,0.0,0.0,0.0,0.2834443891986991,359.57421763546637,51.33922753783679
2026-09-29 20:42:19.896453120,0.06942724609374999,-0.05745703125,10.196229003906248,0.0010652644360316954,0.0,0.0,0.2820509404614616,359.57446840832625,51.33917640700421
2026-09-29 20:42:19.927700224,0.059851074218749994,-0.11012597656249999,10.275232421875,0.0,0.0,0.0,0.28091047570873645,359.5746745804815,51.339427031636596
2026-09-29 20:42:19.927700224,0.059851074218749994,-0.05027490234375,10.16989453125,0.0,0.0,0.0,0.2795087415392384,359.5743936696642,51.33937282726827
2026-09-29 20:42:19.927700224,0.0813974609375,-0.0383046875,10.205805175781249,0.0,0.0,0.0,0.2781333288282165,359.57479531593884,51.339929593152185
2026-09-29 20:42:19.927700224,0.04069873046875,-0.06463916015625,10.201017089843749,0.0,0.0,0.0,0.27746634807341636,359.57412836770027,51.33987082073234
2026-09-29 20:42:19.927700224,0.04069873046875,-0.076609375,10.167500488281249,0.0,0.0,-0.0010652644360316954,0.27639537971038314,359.57472214616274,51.339206938221494
2026-09-29 20:42:19.927700224,0.05027490234375,-0.11012597656249999,10.14834814453125,0.0,0.0,0.0,0.27473665869830277,359.57524926039326,51.33915320964592
2026-09-29 20:42:19.927700224,0.047880859374999994,-0.11252001953124999,10.236927734375,0.0,0.0,-0.0010652644360316954,0.27309582242932384,359.5759145091357,51.33940670974977
2026-09-29 20:42:19.927700224,0.09336767578124999,-0.06463916015625,10.239321777343749,0.0,0.0,0.0,0.27150035717424537,359.5760286069486,51.33904816979464
2026-09-29 20:42:19.927700224,0.0622451171875,-0.06942724609374999,10.24889794921875,0.0,0.0,0.0010652644360316954,0.2704395741430801,359.57533186065655,51.339905645444865
2026-09-29 20:42:19.927700224,0.035910644531249994,-0.06942724609374999,10.201017089843749,0.0010652644360316954,0.0,0.0,0.2697613629492212,359.5756051243626,51.3398513231985
2026-09-29 20:42:19.927700224,0.07421533203125,-0.0813974609375,10.16989453125,0.0,0.0,-0.0010652644360316954,0.2688876253351351,359.57508309188285,51.33948664704707
2026-09-29 20:42:19.927700224,0.076609375,-0.076609375,10.179470703124998,0.0,0.0,0.0,0.26746643794160857,359.5749541898335,51.3400408832681
2026-09-29 20:42:19.927700224,0.047880859374999994,-0.067033203125,10.217775390624999,0.0,0.0,0.0,0.2661997003256269,359.5750391650401,51.33998711848247
2026-09-29 20:42:19.927700224,0.06942724609374999,-0.03112255859375,10.244109863281249,0.0010652644360316954,0.0,0.0,0.26546466379433054,359.5751919690645,51.33993180746471
2026-09-29 20:42:19.927700224,0.0813974609375,-0.06942724609374999,10.189046874999999,-0.0010652644360316954,0.0,0.0,0.2640762785024416,359.5755320228175,51.340183398406765
2026-09-29 20:42:19.927700224,0.0383046875,-0.10533789062499999,10.155530273437499,0.0,0.0,0.0,0.2629305574712561,359.57557422971735,51.340739296224285
2026-09-29 20:42:19.927700224,0.0335166015625,-0.06463916015625,10.227351562499999,0.0,0.0,0.0,0.26192547403256683,359.57570940406356,51.34068594880797
2026-09-29 20:42:19.927700224,0.0143642578125,-0.07900341796874999,10.222563476562499,0.0,0.0,0.0,0.26093249225654264,359.576145261253,51.34032642282636
2026-09-29 20:42:19.927700224,0.09576171874999999,-0.0622451171875,10.18186474609375,0.0,-0.0010652644360316954,0.0,0.2597433478836408,359.5762687319518,51.3402707201106
2026-09-29 20:42:19.927700224,0.08379150390625,-0.07900341796874999,10.15313623046875,0.0,-0.0010652644360316954,0.0,0.258727092760723,359.57548920455366,51.340517630354086
2026-09-29 20:42:19.927700224,0.043092773437499995,-0.11730810546874999,10.2034111328125,0.0010652644360316954,0.0,-0.0010652644360316954,0.2579966157722412,359.5755882368755,51.34015714652826
2026-09-29 20:42:19.927700224,0.06463916015625,-0.055062988281249996,10.189046874999999,0.0,0.0,-0.0010652644360316954,0.25679115918255424,359.57545320076235,51.339493739401625
2026-09-29 20:42:19.927700224,0.09336767578124999,-0.08857958984374999,10.189046874999999,0.0010652644360316954,0.0,0.0,0.25622081955244264,359.5752475091698,51.3394394578495
2026-09-29 20:42:19.943326976,0.06463916015625,-0.0335166015625,10.1363779296875,0.0,0.0,0.0,0.2557826245228784,359.57512336014355,51.33938420070314
2026-09-29 20:42:19.943326976,0.10294384765624999,-0.07182128906249999,10.184258789062499,0.0,0.0,0.0,0.25526217943130086,359.57480825096025,51.33993641720341
2026-09-29 20:42:19.943326976,0.01675830078125,-0.043092773437499995,10.17707666015625,0.0,0.0,0.0,0.2550368292263404,359.57436389824215,51.3401847484955
2026-09-29 20:42:19.943326976,0.0813974609375,-0.076609375,10.179470703124998,0.0,0.0,0.0,0.2540049809821209,359.5751127462307,51.340128504441076
2026-09-29 20:42:19.943326976,0.03112255859375,-0.059851074218749994,10.17707666015625,0.0,-0.0010652644360316954,0.0,0.25232804516879387,359.5746041781231,51.33976694148253
2026-09-29 20:42:19.943326976,0.055062988281249996,-0.076609375,10.201017089843749,0.0,0.0,0.0,0.25106152620321714,359.57523132404737,51.34001754183025
2026-09-29 20:42:19.943326976,0.06942724609374999,-0.0622451171875,10.212987304687498,0.0,0.0,0.0,0.25003722425718466,359.5753841387644,51.33996209570902
2026-09-29 20:42:19.974575616,0.06463916015625,-0.059851074218749994,10.244109863281249,0.0,0.0,0.0,0.2490237521075506,359.57536108027443,51.340515630179944
2026-09-29 20:42:19.974575616,0.09336767578124999,-0.06463916015625,10.17707666015625,0.0,0.0,0.0,0.24801309043677508,359.5749046313362,51.34076255267694
2026-09-29 20:42:19.974575616,0.04548681640625,-0.09576171874999999,10.162712402343749,0.0,-0.0010652644360316954,0.0,0.2469155061325418,359.5743954836874,51.3407062982849
2026-09-29 20:42:19.974575616,0.06463916015625,-0.0909736328125,10.222563476562499,0.0,0.0,0.0,0.24564873618418223,359.5748671905798,51.340653991865715
2026-09-29 20:42:19.974575616,0.05745703125,-0.0813974609375,10.21538134765625,0.0,0.0,0.0,0.24427701919457986,359.5749956293362,51.34060112490623
2026-09-29 20:42:19.990226688,0.059851074218749994,-0.08618554687499999,10.205805175781249,0.0,0.0,0.0,0.2429182666159462,359.57538851557365,51.34085246502935
2026-09-29 20:42:19.990226688,0.0622451171875,-0.08857958984374999,10.155530273437499,0.0,0.0,0.0,0.24152117898149275,359.57537936965514,51.34140660459572
2026-09-29 20:42:19.990226688,0.07900341796874999,-0.04069873046875,10.1363779296875,0.0,-0.0010652644360316954,0.0,0.2399715755890116,359.5752630813011,51.341656829032836
2026-09-29 20:42:19.990226688,0.059851074218749994,-0.055062988281249996,10.227351562499999,0.0,0.0,0.0,0.23896976213995758,359.57530871176465,51.34160129212586
2026-09-29 20:42:19.990226688,0.076609375,-0.05027490234375,10.196229003906248,0.0,0.0,-0.0010652644360316954,0.23797246109305673,359.5755992736601,51.34093670214157
2026-09-29 20:42:19.990226688,0.059851074218749994,-0.11252001953124999,10.236927734375,0.0,0.0,0.0,0.23694534143937485,359.57577677602563,51.34118770033532
2026-09-29 20:42:20.005827072,0.09336767578124999,-0.08379150390625,10.162712402343749,0.0,-0.0010652644360316954,0.0,0.23541693087243692,359.57593198673965,51.34113378109654
2026-09-29 20:42:20.005827072,0.059851074218749994,-0.05745703125,10.201017089843749,0.0,0.0,0.0,0.23389128821234528,359.5759104008634,51.34138502076448
2026-09-29 20:42:20.005827072,0.076609375,-0.07182128906249999,10.18665283203125,0.0010652644360316954,0.0010652644360316954,0.0,0.23329436947387075,359.57684157733297,51.34194281335602
2026-09-29 20:42:20.005827072,0.076609375,-0.0909736328125,10.227351562499999,0.0,0.0,-0.0010652644360316954,0.2323471430595129,359.5768204466279,51.34158294813243
2026-09-29 20:42:20.005827072,0.07182128906249999,-0.07900341796874999,10.244109863281249,0.0,0.0010652644360316954,0.0,0.231353683098335,359.57743532243495,51.34214020307077
2026-09-29 20:42:20.037074176,0.055062988281249996,-0.0813974609375,10.157924316406248,0.0,0.0,0.0,0.23080429373693823,359.57736166075,51.342083428788015
2026-09-29 20:42:20.037074176,0.055062988281249996,-0.059851074218749994,10.184258789062499,0.0,-0.0010652644360316954,0.0,0.22927385299436162,359.57705835331154,51.34233107990701
2026-09-29 20:42:20.037074176,0.01915234375,-0.055062988281249996,10.157924316406248,0.0,0.0,0.0,0.2281850201432799,359.57749622195655,51.34258033020985
2026-09-29 20:42:20.037074176,0.07182128906249999,-0.076609375,10.201017089843749,0.0,0.0,0.0,0.22764352886977227,359.57749786650373,51.34252234639853
2026-09-29 20:42:20.037074176,0.09336767578124999,-0.08618554687499999,10.256080078124999,0.0010652644360316954,0.0,0.0,0.22694406413512658,359.5778059726969,51.34246786420857
2026-09-29 20:42:20.037074176,0.06942724609374999,-0.07421533203125,10.205805175781249,0.0,-0.0010652644360316954,0.0,0.22535266384218003,359.577493612294,51.34271606133756
2026-09-29 20:42:20.037074176,0.07900341796874999,-0.0622451171875,10.1651064453125,0.0,0.0,0.0,0.22412665558541375,359.57735192575825,51.342660905595956
2026-09-29 20:42:20.037074176,0.028728515625,-0.0622451171875,10.17707666015625,0.0,0.0,0.0,0.22288918552914827,359.5775507783006,51.3429111131962
2026-09-29 20:42:20.037074176,0.0813974609375,-0.07182128906249999,10.2034111328125,0.0,-0.0010652644360316954,0.0,0.22126924479801705,359.57747049783427,51.34315960464632
2026-09-29 20:42:20.037074176,0.05745703125,-0.05745703125,10.201017089843749,0.0,0.0,-0.0010652644360316954,0.21997395695481023,359.57717059350944,51.342797614061865
2026-09-29 20:42:20.037074176,0.10533789062499999,-0.067033203125,10.198623046875,0.0,0.0,0.0,0.21848905973210958,359.57742379574825,51.343352618776024
2026-09-29 20:42:20.052701440,0.08618554687499999,-0.0909736328125,10.184258789062499,0.0,0.0,0.0,0.21738327901365387,359.5775334874515,51.34329885226042
2026-09-29 20:42:20.052701440,0.08379150390625,-0.076609375,10.277626464843749,0.0,-0.0010652644360316954,0.0,0.21576233969800573,359.5774703271632,51.343243320109316
2026-09-29 20:42:20.052701440,0.05745703125,-0.09336767578124999,10.160318359375,0.0,0.0,-0.0010652644360316954,0.2143073558760437,359.5776235096431,51.342578604363695
2026-09-29 20:42:20.052701440,0.03112255859375,-0.035910644531249994,10.167500488281249,0.0,0.0,0.0,0.21322122818072,359.5775181509988,51.342827692227665
2026-09-29 20:42:20.052701440,0.0622451171875,-0.07182128906249999,10.244109863281249,-0.0010652644360316954,0.0,0.0,0.21179160663005633,359.578260297818,51.34307705003339
2026-09-29 20:42:20.052701440,0.043092773437499995,-0.07182128906249999,10.212987304687498,0.0,0.0,0.0,0.21083283766739533,359.5784370707411,51.342717210190436
2026-09-29 20:42:20.052701440,0.055062988281249996,-0.0909736328125,10.22016943359375,0.0,0.0,0.0,0.21001925909284935,359.5783993327336,51.342659103580125
2026-09-29 20:42:20.052701440,0.021546386718749998,-0.07900341796874999,10.19144091796875,0.0,0.0,0.0,0.208266453898656,359.5787471863546,51.34260553738708
2026-09-29 20:42:20.052701440,0.08618554687499999,-0.0909736328125,10.19144091796875,0.0,0.0,0.0,0.20668705052702696,359.57927773982465,51.34285591279328
2026-09-29 20:42:20.052701440,0.04548681640625,-0.067033203125,10.263262207031248,0.0,0.0,0.0,0.20540433876383732,359.57880274731866,51.3427990140674
2026-09-29 20:42:20.052701440,0.09336767578124999,-0.09336767578124999,10.20819921875,0.0,0.0,0.0,0.20411015721524875,359.5792304516787,51.34274440158282
2026-09-29 20:42:20.052701440,0.07421533203125,-0.08618554687499999,10.17707666015625,0.0,-0.0010652644360316954,0.0,0.20264649088725245,359.5791747896328,51.342995065414236
2026-09-29 20:42:20.068327680,0.0813974609375,-0.055062988281249996,10.155530273437499,0.0,0.0,0.0,0.2012920878660463,359.5789328172462,51.34324398651355
2026-09-29 20:42:20.068327680,0.023940429687499997,-0.076609375,10.212987304687498,0.0,0.0,-0.0010652644360316954,0.2000504208583766,359.5791450051855,51.34288385155545
2026-09-29 20:42:20.068327680,0.035910644531249994,-0.08857958984374999,10.1746826171875,0.0,0.0,0.0,0.1986773779758836,359.5796115599891,51.34252470013829
2026-09-29 20:42:20.068327680,0.0813974609375,-0.0909736328125,10.157924316406248,0.0,0.0,-0.0010652644360316954,0.19726686708252236,359.5794493672745,51.34246886107484
2026-09-29 20:42:20.068327680,0.09576171874999999,-0.09576171874999999,10.157924316406248,0.0,0.0,0.0,0.1960453156536926,359.5797372367175,51.3424158879731
2026-09-29 20:42:20.083951616,0.1149140625,-0.0909736328125,10.268050292968748,0.0,0.0,0.0,0.19551570545794977,359.57920337884326,51.342360242933374
2026-09-29 20:42:20.083951616,0.021546386718749998,-0.10294384765624999,10.155530273437499,0.0,0.0,0.0,0.1944138809670758,359.5791668093126,51.34230535144463
2026-09-29 20:42:20.099575040,0.067033203125,-0.08857958984374999,10.217775390624999,0.0,0.0,-0.0010652644360316954,0.19365064674723878,359.5795623749337,51.34194504053972
2026-09-29 20:42:20.099575040,0.0813974609375,-0.09815576171875,10.15313623046875,0.0,0.0,0.0,0.1927417132704262,359.57968090963783,51.341583634500495
2026-09-29 20:42:20.099575040,0.0622451171875,-0.08618554687499999,10.236927734375,0.0,0.0,0.0,0.19163090823342763,359.57991285090026,51.342140272645054
2026-09-29 20:42:20.099575040,0.09336767578124999,-0.08857958984374999,10.229745605468748,0.0,0.0,0.0,0.19117526141668653,359.57927393837673,51.34208300010832
2026-09-29 20:42:20.115202816,0.047880859374999994,-0.067033203125,10.2417158203125,0.0,0.0,0.0,0.19037214479730794,359.57938001134113,51.34233207500646
2026-09-29 20:42:20.115202816,0.04548681640625,-0.09576171874999999,10.196229003906248,0.0,0.0,0.0,0.18945030447568068,359.5791291956007,51.342579974773166
2026-09-29 20:42:20.115202816,0.076609375,-0.07421533203125,10.212987304687498,0.0010652644360316954,0.0010652644360316954,0.0,0.1885766497908568,359.57988579570133,51.342222531295086
2026-09-29 20:42:20.115202816,0.09815576171875,-0.028728515625,10.172288574218749,0.0,0.0,0.0,0.18751363519191006,359.5801498269214,51.342473541279325
2026-09-29 20:42:20.115202816,0.08379150390625,-0.076609375,10.201017089843749,0.0,-0.0010652644360316954,0.0,0.1861761236342871,359.57957778625547,51.34241388485895
2026-09-29 20:42:20.146449920,0.08618554687499999,-0.08379150390625,10.167500488281249,0.0,0.0,0.0,0.1852236477943863,359.5802799758437,51.34266493258172
2026-09-29 20:42:20.146449920,0.08618554687499999,-0.06463916015625,10.189046874999999,0.0,0.0,0.0,0.18452590792119467,359.58056761435574,51.342915482907316
2026-09-29 20:42:20.146449920,0.0622451171875,-0.067033203125,10.1938349609375,0.0,0.0,0.0,0.18330177155008823,359.58056307792543,51.342859318048056
2026-09-29 20:42:20.146449920,0.021546386718749998,-0.026334472656249996,10.160318359375,0.0,0.0,0.0,0.18197347191540594,359.5816992711213,51.34280674852581
2026-09-29 20:42:20.146449920,0.06942724609374999,-0.08379150390625,10.229745605468748,0.0010652644360316954,0.0,0.0,0.18171070286254687,359.5823686288717,51.34244370137662
2026-09-29 20:42:20.146449920,0.05266894531249999,-0.067033203125,10.227351562499999,0.0,0.0,-0.0010652644360316954,0.1803480234312122,359.5828675487939,51.3420852583182
2026-09-29 20:42:20.146449920,0.0909736328125,-0.0813974609375,10.14356005859375,0.0010652644360316954,0.0,0.0,0.17982074293270112,359.5830468106259,51.342029199439466
2026-09-29 20:42:20.146449920,0.06942724609374999,-0.0909736328125,10.21538134765625,0.0,0.0,0.0,0.17955936600709513,359.5832199254596,51.34227855796043
2026-09-29 20:42:20.146449920,0.07900341796874999,-0.0813974609375,10.2417158203125,0.0,0.0,0.0,0.17843784780304783,359.5827999317879,51.34222270045162
2026-09-29 20:42:20.146449920,0.055062988281249996,-0.07421533203125,10.1746826171875,0.0,0.0,0.0,0.17725103358663166,359.58337635737973,51.34216797414427
2026-09-29 20:42:20.162076416,0.055062988281249996,-0.08379150390625,10.18186474609375,0.0,0.0,0.0,0.1760146093848117,359.58310111274744,51.342110866386214
2026-09-29 20:42:20.162076416,0.04548681640625,-0.09576171874999999,10.234533691406249,0.0,0.0,0.0,0.17486221956315298,359.5829476261837,51.34175015821653
2026-09-29 20:42:20.162076416,0.08379150390625,-0.0909736328125,10.217775390624999,0.0010652644360316954,0.0,0.0,0.1745069600974032,359.5834191370883,51.34138909541889
2026-09-29 20:42:20.162076416,0.0622451171875,-0.08857958984374999,10.129195800781249,0.0,0.0,0.0,0.17357941090474277,359.5830284619554,51.34133182724888
2026-09-29 20:42:20.162076416,0.05027490234375,-0.08379150390625,10.205805175781249,0.0,0.0,0.0,0.17216324045266837,359.5832820419609,51.341583045062855
2026-09-29 20:42:20.162076416,0.09815576171875,-0.10294384765624999,10.179470703124998,0.0,0.0,0.0,0.17083000737139248,359.58336757316886,51.341527436427725
2026-09-29 20:42:20.162076416,0.06463916015625,-0.07182128906249999,10.16989453125,0.0,0.0,0.0,0.16995096085528727,359.5838496925607,51.34147483052377
2026-09-29 20:42:20.162076416,0.06463916015625,-0.067033203125,10.17707666015625,0.0,-0.0010652644360316954,-0.0010652644360316954,0.16904719863241346,359.58340010315436,51.34141672770605
2026-09-29 20:42:20.162076416,0.07421533203125,-0.10533789062499999,10.14356005859375,0.0,0.0,0.0,0.16822630010704243,359.58343148019884,51.34105452202016
2026-09-29 20:42:20.162076416,0.06942724609374999,-0.0909736328125,10.20819921875,0.0010652644360316954,0.0,0.0,0.1674709973570479,359.58378932181375,51.34130542206387
2026-09-29 20:42:20.162076416,0.0622451171875,-0.05027490234375,10.277626464843749,0.0,0.0,0.0,0.16650752685854794,359.5839662958902,51.34094528918016
2026-09-29 20:42:20.162076416,0.043092773437499995,-0.043092773437499995,10.1651064453125,0.0,0.0,0.0,0.1657902406325371,359.5835708887332,51.34149691993198
2026-09-29 20:42:20.162076416,0.07421533203125,-0.1005498046875,10.217775390624999,0.0,0.0,-0.0010652644360316954,0.16504249121690953,359.5842760099602,51.341135977417395
2026-09-29 20:42:20.162076416,0.047880859374999994,-0.1005498046875,10.167500488281249,0.0,0.0,-0.0010652644360316954,0.16386926541915595,359.58425395455066,51.34108165781907
2026-09-29 20:42:20.162076416,0.035910644531249994,-0.0622451171875,10.133983886718749,0.0,0.0,-0.0010652644360316954,0.1626748947686124,359.58430945654754,51.34072127221093
2026-09-29 20:42:20.162076416,0.124490234375,-0.059851074218749994,10.18665283203125,0.0,0.0,-0.0010652644360316954,0.16180168204035228,359.5848259656817,51.340360293962554
2026-09-29 20:42:20.162076416,0.07900341796874999,-0.0813974609375,10.20819921875,0.0,0.0010652644360316954,0.0,0.16068325433701589,359.58513229540375,51.3409153771483
2026-09-29 20:42:20.162076416,0.08857958984374999,-0.08379150390625,10.22016943359375,0.0,0.0,0.0,0.15961172864363252,359.5853590352951,51.34086103913205
2026-09-29 20:42:20.162076416,0.0335166015625,-0.07182128906249999,10.196229003906248,0.0,0.0,0.0,0.15904280704429563,359.58512289784255,51.34110955204205
2026-09-29 20:42:20.162076416,0.047880859374999994,-0.07182128906249999,10.1651064453125,0.0,0.0,0.0,0.15797394139550108,359.58533593696257,51.3410521266577
2026-09-29 20:42:20.162076416,0.059851074218749994,-0.05745703125,10.18665283203125,0.0,0.0,0.0,0.1566941525502119,359.58599621869377,51.34130221608667
2026-09-29 20:42:20.177702912,0.047880859374999994,-0.047880859374999994,10.1938349609375,0.0010652644360316954,0.0,0.0,0.15654529263670316,359.5860877194269,51.34124470064224
2026-09-29 20:42:20.193324288,0.023940429687499997,-0.1292783203125,10.162712402343749,0.0,0.0,0.0,0.15575542617824067,359.5865745837923,51.341798628204955
2026-09-29 20:42:20.193324288,0.0813974609375,-0.11252001953124999,10.21059326171875,0.0,0.0,0.0,0.15423041973943968,359.5867962117122,51.3417436127851
2026-09-29 20:42:20.193324288,0.03112255859375,-0.08857958984374999,10.189046874999999,0.0,0.0,0.0,0.15287646477607378,359.58692368775087,51.34229854315731
2026-09-29 20:42:20.193324288,0.076609375,-0.07900341796874999,10.244109863281249,0.0010652644360316954,0.0,0.0,0.1521283254217479,359.587384083483,51.34193873506849
2026-09-29 20:42:20.193324288,0.055062988281249996,-0.055062988281249996,10.184258789062499,0.0,0.0010652644360316954,-0.0010652644360316954,0.15160307373989484,359.5881514373011,51.341884177604825
2026-09-29 20:42:20.193324288,0.07421533203125,-0.06463916015625,10.17707666015625,0.0,0.0,0.0,0.1500579566194029,359.5882274987535,51.34182800294991
2026-09-29 20:42:20.208951296,0.05745703125,-0.076609375,10.229745605468748,0.0,0.0,0.0,0.1485177625798385,359.5886301320137,51.341772489046534
2026-09-29 20:42:20.208951296,0.0622451171875,-0.0622451171875,10.2034111328125,0.0,0.0010652644360316954,0.0,0.14752489938654834,359.5894350027413,51.34141299505866
2026-09-29 20:42:20.208951296,0.04069873046875,-0.10533789062499999,10.20819921875,0.0,0.0,0.0,0.14645231674467427,359.5899041655808,51.34135629085827
2026-09-29 20:42:20.208951296,0.0622451171875,-0.07900341796874999,10.167500488281249,0.0,0.0,-0.0010652644360316954,0.14458886165846835,359.5904411586244,51.34099782640041
2026-09-29 20:42:20.208951296,0.0622451171875,-0.13406640625,10.17707666015625,0.0,0.0,0.0,0.14346940006327924,359.59017988020184,51.34094193666824
2026-09-29 20:42:20.208951296,0.05266894531249999,-0.06463916015625,10.20819921875,0.0,0.0,0.0,0.14237959075808954,359.5905013635579,51.34088746559976
2026-09-29 20:42:20.240199424,0.047880859374999994,-0.06463916015625,10.1746826171875,0.0010652644360316954,0.0,-0.0010652644360316954,0.14175746562683308,359.5908632540183,51.34052667817194
2026-09-29 20:42:20.240199424,0.035910644531249994,-0.07900341796874999,10.1363779296875,0.0,0.0,0.0,0.140694018844951,359.59083939044297,51.34077428688151
2026-09-29 20:42:20.240199424,0.0335166015625,-0.05745703125,10.155530273437499,0.0,0.0,0.0,0.13918500374679346,359.5913970527148,51.3407184547503
2026-09-29 20:42:20.255823616,0.047880859374999994,-0.067033203125,10.212987304687498,0.0,0.0,0.0,0.13865811422282714,359.5915666819103,51.34096657726348
2026-09-29 20:42:20.255823616,0.0383046875,-0.09815576171875,10.18186474609375,0.0,0.0,0.0,0.1377464919572574,359.59176682410566,51.34121525481187
2026-09-29 20:42:20.255823616,0.06942724609374999,-0.06463916015625,10.18186474609375,0.0,0.0,-0.0010652644360316954,0.13637391070716598,359.59269377257317,51.34146648392343
2026-09-29 20:42:20.255823616,0.05745703125,-0.06463916015625,10.20819921875,0.0,0.0,0.0,0.13505836716284564,359.5925332573733,51.341408455035996
2026-09-29 20:42:20.255823616,0.05266894531249999,-0.08857958984374999,10.20819921875,0.0,0.0010652644360316954,0.0,0.1343025049767909,359.59319428043386,51.34135220614542
2026-09-29 20:42:20.255823616,0.09336767578124999,-0.08379150390625,10.212987304687498,0.0,0.0,0.0,0.1333245339461261,359.5937507395768,51.34099178521408
2026-09-29 20:42:20.255823616,0.05745703125,-0.0813974609375,10.21538134765625,0.0010652644360316954,0.0,0.0,0.13283602972157146,359.59371181646566,51.340934431740344
2026-09-29 20:42:20.271449856,0.05745703125,-0.07900341796874999,10.179470703124998,0.0,-0.0010652644360316954,0.0,0.13153800036912286,359.5933654526896,51.34118289348924
2026-09-29 20:42:20.271449856,0.07900341796874999,-0.09576171874999999,10.189046874999999,0.0,-0.0010652644360316954,0.0,0.13036650742323888,359.5932445509698,51.34082023807835
2026-09-29 20:42:20.271449856,0.07900341796874999,-0.059851074218749994,10.1746826171875,0.0010652644360316954,0.0,0.0,0.12996241350811844,359.5932816519868,51.34106750321705
2026-09-29 20:42:20.271449856,0.043092773437499995,-0.04548681640625,10.236927734375,0.0,0.0,0.0,0.12949491344167,359.59308071362875,51.34100993402274
2026-09-29 20:42:20.271449856,0.06942724609374999,-0.08379150390625,10.244109863281249,0.0,-0.0010652644360316954,0.0,0.12866673935522704,359.59277401124103,51.341254394100375
2026-09-29 20:42:20.271449856,0.06942724609374999,-0.10533789062499999,10.21538134765625,0.0,0.0,0.0,0.12764444076408527,359.5931068548606,51.3411993874324
2026-09-29 20:42:20.271449856,0.05266894531249999,-0.06463916015625,10.172288574218749,0.0,0.0,0.0,0.1263199893065457,359.59303941383206,51.341143605262225
2026-09-29 20:42:20.287075584,0.047880859374999994,-0.08857958984374999,10.22495751953125,0.0,0.0,0.0,0.12555190396776839,359.5934751458295,51.341391959332896
2026-09-29 20:42:20.302729216,0.08618554687499999,-0.05745703125,10.172288574218749,0.0,-0.0010652644360316954,0.0,0.12421790644929509,359.5933405397657,51.34133555806829
2026-09-29 20:42:20.318328064,0.067033203125,-0.08618554687499999,10.196229003906248,0.0,0.0,0.0,0.12325776509763231,359.5933769747457,51.34127782808689
2026-09-29 20:42:20.318328064,0.06463916015625,-0.0383046875,10.2321396484375,0.0,0.0,0.0,0.1219795893177808,359.59344025951407,51.341526995298
2026-09-29 20:42:20.333950464,0.009576171875,-0.09336767578124999,10.1746826171875,0.0,0.0,0.0,0.12147599593837552,359.5932396375759,51.34116182951341
2026-09-29 20:42:20.349573888,0.05745703125,-0.0909736328125,10.19144091796875,0.0,0.0,0.0,0.12054804657672805,359.59375423987797,51.34110608842679
2026-09-29 20:42:20.349573888,0.08379150390625,-0.059851074218749994,10.239321777343749,0.0,0.0,0.0,0.11930176801488669,359.5944524996441,51.341356166261384
2026-09-29 20:42:20.349573888,0.08379150390625,-0.08379150390625,10.246503906249998,0.0,0.0,-0.0010652644360316954,0.11834137483091917,359.5943074195848,51.34068967430244
2026-09-29 20:42:20.349573888,0.05745703125,-0.07421533203125,10.26565625,0.0010652644360316954,0.0,0.0,0.11768414296341913,359.5949425691611,51.34063479731301
2026-09-29 20:42:20.349573888,0.05745703125,-0.076609375,10.2321396484375,0.0,0.0,0.0,0.1170804827771344,359.5951252319365,51.340576707055966
2026-09-29 20:42:20.349573888,0.07900341796874999,-0.08857958984374999,10.1651064453125,0.0,0.0,0.0,0.11667464762494037,359.59582391876995,51.340825155461154
2026-09-29 20:42:20.365202432,0.021546386718749998,-0.04069873046875,10.1938349609375,0.0,0.0,0.0,0.11522735076365233,359.5958526892407,51.3407702169904
2026-09-29 20:42:20.365202432,0.047880859374999994,-0.0622451171875,10.184258789062499,0.0,-0.0010652644360316954,0.0,0.11488344846410448,359.5952622145786,51.340404884068334
2026-09-29 20:42:20.380829952,0.06942724609374999,-0.04548681640625,10.217775390624999,0.0,0.0,0.0,0.11423270894666071,359.59505792802196,51.34034587990754
2026-09-29 20:42:20.396449792,0.055062988281249996,-0.0383046875,10.172288574218749,0.0,-0.0010652644360316954,0.0,0.11306389213824504,359.5946943808422,51.34059137266239
2026-09-29 20:42:20.396449792,0.0383046875,-0.08857958984374999,10.227351562499999,0.0,0.0,0.0,0.11256004524797064,359.59471611937875,51.34083719828257
2026-09-29 20:42:20.412085760,0.07900341796874999,-0.09815576171875,10.2321396484375,0.0,-0.0021305288720633907,0.0,0.11139478921303296,359.5942341127769,51.341084234885585
2026-09-29 20:42:20.412085760,0.047880859374999994,-0.076609375,10.24889794921875,0.0,0.0,-0.0010652644360316954,0.11050108294746974,359.59414173039954,51.3407224444546
2026-09-29 20:42:20.443326720,0.05027490234375,-0.06463916015625,10.17707666015625,0.0,0.0,0.0,0.10979175929445166,359.5947386897214,51.34066499791876
2026-09-29 20:42:20.443326720,0.07182128906249999,-0.05027490234375,10.18665283203125,0.0,0.0,0.0,0.10935876958852937,359.59490637572844,51.34121764520723
2026-09-29 20:42:20.443326720,0.08379150390625,-0.076609375,10.16989453125,0.0,0.0,0.0,0.1088100011311841,359.59492532320564,51.34146372151377
2026-09-29 20:42:20.474574080,0.05266894531249999,-0.10533789062499999,10.22016943359375,0.0,0.0,0.0,0.10775674918066605,359.5954484523443,51.34201753694592
2026-09-29 20:42:20.490197504,0.10533789062499999,-0.0909736328125,10.160318359375,0.0,-0.0010652644360316954,0.0,0.10640301267936891,359.5955730824331,51.34226718848682
2026-09-29 20:42:20.505822720,0.04548681640625,-0.0622451171875,10.227351562499999,0.0,0.0,0.0,0.10515599157600793,359.59552556066404,51.34282178607837
2026-09-29 20:42:20.505822720,0.08379150390625,-0.035910644531249994,10.22016943359375,0.0,-0.0010652644360316954,-0.0010652644360316954,0.10410412831111497,359.59591932824077,51.34215380556722
2026-09-29 20:42:20.537072384,0.043092773437499995,-0.10773193359375,10.2321396484375,0.0,0.0,-0.0010652644360316954,0.10297423993659342,359.59592976033053,51.341484248015306
2026-09-29 20:42:20.537072384,0.059851074218749994,-0.03112255859375,10.1938349609375,0.0,0.0,0.0,0.10160305256391998,359.595976698335,51.341734066222415
2026-09-29 20:42:20.537072384,0.067033203125,-0.05745703125,10.162712402343749,0.0,0.0,-0.0010652644360316954,0.10121903920235321,359.59586370364025,51.34136863059344
2026-09-29 20:42:20.537072384,0.035910644531249994,-0.07421533203125,10.1651064453125,0.0,-0.0010652644360316954,-0.0010652644360316954,0.10011778542673426,359.5957760142531,51.34130862919983
2026-09-29 20:42:20.537072384,0.05027490234375,-0.076609375,10.189046874999999,0.0,0.0,0.0,0.09954973896488473,359.5959127833041,51.341249667790386
2026-09-29 20:42:20.548744192,0.067033203125,-0.06463916015625,10.172288574218749,0.0,0.0,0.0,0.09883244537960871,359.59586419560327,51.341801575896895
2026-09-29 20:42:20.568414976,0.05027490234375,-0.0813974609375,10.212987304687498,0.0010652644360316954,0.0,0.0,0.0985100813463402,359.59598958672404,51.341132652428364
2026-09-29 20:42:20.584008704,0.01675830078125,-0.07900341796874999,10.19144091796875,0.0,-0.0021305288720633907,0.0,0.09704116542614834,359.59627343484084,51.3413809268771
2026-09-29 20:42:20.599736576,0.047880859374999994,-0.07421533203125,10.20819921875,0.0,0.0,0.0,0.09658515393140518,359.59667558218774,51.341323234979576
2026-09-29 20:42:20.630887680,0.043092773437499995,-0.06942724609374999,10.22495751953125,0.0,0.0,0.0,0.09571878843182613,359.596853658797,51.34126635715472
2026-09-29 20:42:20.630887680,0.035910644531249994,-0.06942724609374999,10.2034111328125,0.0,0.0,-0.0010652644360316954,0.09494921305054238,359.5965669346061,51.340903230434975
2026-09-29 20:42:20.662133760,0.0622451171875,-0.0813974609375,10.189046874999999,0.0,-0.0031957933080950856,0.0,0.09379406776103419,359.59574898041035,51.340842539538556
2026-09-29 20:42:20.677760000,0.06463916015625,-0.076609375,10.189046874999999,0.0,0.0,0.0,0.09255996006980118,359.5960473829141,51.34109175210663
2026-09-29 20:42:20.677760000,0.08857958984374999,-0.124490234375,10.16989453125,0.0,0.0,0.0,0.09148573559360486,359.5963029994103,51.34164513595174
2026-09-29 20:42:20.677760000,0.08379150390625,-0.1005498046875,10.14834814453125,0.0,-0.0010652644360316954,0.0,0.08991485166900837,359.59617341653876,51.34158886100546
2026-09-29 20:42:20.724631552,0.021546386718749998,-0.0909736328125,10.2321396484375,0.0,0.0,0.0,0.08888822399137132,359.5964026602766,51.34183874876429
2026-09-29 20:42:20.740257280,0.067033203125,-0.10773193359375,10.1651064453125,0.0,0.0,0.0,0.08789128276986315,359.5970193261801,51.341783302836554
2026-09-29 20:42:20.755884800,0.06463916015625,-0.07421533203125,10.256080078124999,0.0,0.0,0.0,0.08694596056915535,359.59704747930834,51.342337362079505
2026-09-29 20:42:20.771506688,0.06942724609374999,-0.08618554687499999,10.198623046875,0.0,-0.0010652644360316954,0.0,0.08560978471109204,359.5969748091689,51.34197432715242
2026-09-29 20:42:20.787131392,0.0909736328125,-0.055062988281249996,10.217775390624999,0.0,0.0,0.0,0.08439409295135879,359.59720557289353,51.34191813091314
2026-09-29 20:42:20.787131392,0.0383046875,-0.08857958984374999,10.236927734375,0.0,0.0,-0.0010652644360316954,0.08382080246432971,359.59731755967874,51.34124944026859
2026-09-29 20:42:20.787131392,0.09336767578124999,-0.0622451171875,10.198623046875,0.0,-0.0010652644360316954,-0.0010652644360316954,0.08275547897508471,359.5973785008522,51.340886603066664
2026-09-29 20:42:20.787131392,0.05266894531249999,-0.06463916015625,10.205805175781249,0.0,0.0,0.0,0.08188975267585104,359.5969198122204,51.34082882286569
2026-09-29 20:42:20.802756096,0.047880859374999994,-0.076609375,10.2034111328125,0.0,0.0,0.0,0.08034804561801741,359.59710866264504,51.34107803801515
2026-09-29 20:42:20.802756096,0.05266894531249999,-0.06942724609374999,10.1938349609375,0.0,0.0,0.0,0.07952700746678554,359.59712604957673,51.34102070728069
2026-09-29 20:42:20.834382848,0.05266894531249999,-0.11012597656249999,10.201017089843749,0.0,0.0,0.0,0.078722979760398,359.59718370397786,51.34065828055616
2026-09-29 20:42:20.839448320,0.11970214843749999,-0.08857958984374999,10.160318359375,0.0,-0.0010652644360316954,0.0,0.07772230937944334,359.5965249998412,51.34029640206064
2026-09-29 20:42:20.839448320,0.023940429687499997,-0.0813974609375,10.172288574218749,0.0,0.0,0.0,0.07697333276565141,359.5964213078164,51.34023863642154
2026-09-29 20:42:20.840465920,0.0813974609375,-0.09336767578124999,10.19144091796875,0.0,0.0,0.0,0.07609108811469323,359.59644986004963,51.34048674282471
2026-09-29 20:42:20.843762176,0.059851074218749994,-0.09336767578124999,10.244109863281249,0.0,0.0,0.0,0.07519940100198913,359.5964673303965,51.340430046043075
2026-09-29 20:42:20.843762176,0.076609375,-0.0813974609375,10.22016943359375,0.0,0.0,-0.0010652644360316954,0.07380478083755987,359.59652854541037,51.34037262710729
2026-09-29 20:42:20.846001920,0.07421533203125,-0.08379150390625,10.17707666015625,0.0,0.0,0.0,0.07270505821877765,359.59658667960747,51.340315355880804
2026-09-29 20:42:20.846001920,0.0622451171875,-0.10294384765624999,10.21059326171875,0.0,0.0,0.0,0.0718445457521355,359.59580778703014,51.34056287871233
2026-09-29 20:42:20.846001920,0.0813974609375,-0.0909736328125,10.222563476562499,0.0,-0.0010652644360316954,0.0,0.07107885480176969,359.5959588899298,51.34081266227664
2026-09-29 20:42:20.846001920,0.076609375,-0.06463916015625,10.18186474609375,0.0,0.0,0.0,0.0701032474880933,359.59612669989093,51.34075478978325
2026-09-29 20:42:20.850007296,0.06463916015625,-0.043092773437499995,10.189046874999999,0.0,0.0,-0.0010652644360316954,0.06934422049409393,359.5958950918518,51.340391966847214
2026-09-29 20:42:20.865668864,0.067033203125,-0.07421533203125,10.15313623046875,0.0,0.0,0.0,0.06905983894506379,359.59542282259025,51.34063801284732
2026-09-29 20:42:20.896890368,0.0383046875,-0.076609375,10.227351562499999,0.0,0.0,0.0,0.06832787206093957,359.59540058851167,51.34058025447881
2026-09-29 20:42:20.912535296,0.07182128906249999,-0.059851074218749994,10.1268017578125,0.0,0.0,0.0,0.06763183640710348,359.5959132516104,51.34113293841097
2026-09-29 20:42:20.928140288,0.07182128906249999,-0.06942724609374999,10.1938349609375,0.0,-0.0010652644360316954,-0.0010652644360316954,0.06646739743872214,359.5957036134097,51.34077066431553
2026-09-29 20:42:20.928140288,0.06463916015625,-0.07900341796874999,10.1746826171875,0.0,-0.0010652644360316954,0.0,0.0655122072677822,359.5952318097624,51.341016806224786
2026-09-29 20:42:20.928140288,0.0383046875,-0.06942724609374999,10.196229003906248,0.0,0.0,0.0,0.06494441017800351,359.59550296621427,51.34126548106984
2026-09-29 20:42:20.928140288,0.06942724609374999,-0.09576171874999999,10.227351562499999,0.0,0.0,0.0,0.06433685129132656,359.5953772698773,51.34151166223089
2026-09-29 20:42:20.928140288,0.043092773437499995,-0.08618554687499999,10.205805175781249,0.0,-0.0010652644360316954,0.0,0.06325524821417226,359.5956660069371,51.34145447173907
2026-09-29 20:42:20.943763712,0.067033203125,-0.08618554687499999,10.212987304687498,0.0,0.0,0.0,0.06216532296791337,359.59587203941896,51.3410920005847
2026-09-29 20:42:20.959389440,0.04069873046875,-0.07182128906249999,10.162712402343749,0.0,-0.0010652644360316954,0.0,0.06206968956197231,359.5954282763358,51.341033408542934
2026-09-29 20:42:20.990639104,0.08618554687499999,-0.0335166015625,10.2321396484375,0.0,-0.0010652644360316954,-0.0010652644360316954,0.06106120126895853,359.5956342365882,51.3406702191242
2026-09-29 20:42:21.006263296,0.047880859374999994,-0.059851074218749994,10.179470703124998,0.0,0.0,0.0,0.06067311591644825,359.5956680606515,51.34091557862298
2026-09-29 20:42:21.006263296,0.00718212890625,-0.08379150390625,10.22495751953125,0.0,0.0,0.0,0.060182137949301925,359.59587350581813,51.34085614253535
2026-09-29 20:42:21.021982976,0.05027490234375,-0.06942724609374999,10.179470703124998,0.0,0.0,-0.0010652644360316954,0.05944299664622778,359.5965812386593,51.34049347582105
2026-09-29 20:42:21.084386816,0.07421533203125,-0.0813974609375,10.2034111328125,0.0,0.0,0.0,0.0581322854261136,359.5971166048906,51.34043567982862
2026-09-29 20:42:21.100020224,0.043092773437499995,-0.07900341796874999,10.184258789062499,0.0,0.0,-0.0021305288720633907,0.05729497033145673,359.5972303595418,51.33946306800241
2026-09-29 20:42:21.100020224,0.05027490234375,-0.07900341796874999,10.179470703124998,0.0,0.0,-0.0010652644360316954,0.05615272867278015,359.596942820686,51.33879541982617
2026-09-29 20:42:21.115640064,0.07182128906249999,-0.07421533203125,10.21538134765625,0.0,0.0,0.0,0.055549755455119455,359.5973026511666,51.33904218311154
2026-09-29 20:42:21.115640064,0.076609375,-0.028728515625,10.1746826171875,0.0,0.0,0.0,0.05477545062052504,359.5971870058885,51.33928986418418
2026-09-29 20:42:21.115640064,0.07182128906249999,-0.0622451171875,10.22016943359375,0.0,0.0,0.0,0.054401852338230784,359.59727007246534,51.33922950581004
2026-09-29 20:42:21.146888704,0.059851074218749994,-0.09576171874999999,10.217775390624999,0.0,0.0,0.0,0.05459728410277747,359.5972477246731,51.33947472807611
2026-09-29 20:42:21.146888704,0.0813974609375,-0.10773193359375,10.196229003906248,0.0,0.0,0.0010652644360316954,0.05411679040506295,359.597079442234,51.339722207190306
2026-09-29 20:42:21.146888704,0.05027490234375,-0.0909736328125,10.19144091796875,0.0,0.0,0.0,0.053442963476758226,359.59737589446206,51.33936129179481
2026-09-29 20:42:21.146888704,0.07182128906249999,-0.11970214843749999,10.21538134765625,0.0,-0.0010652644360316954,0.0,0.05265964678941803,359.5971924766803,51.339608732686976
2026-09-29 20:42:21.162511872,0.076609375,-0.1005498046875,10.2034111328125,0.0,0.0,0.0,0.051973226123442226,359.59699819042754,51.339552818129285
2026-09-29 20:42:21.162511872,0.043092773437499995,-0.08857958984374999,10.198623046875,0.0,-0.0010652644360316954,0.0,0.050849970033279276,359.5965402245766,51.33949530527711
2026-09-29 20:42:21.162511872,0.035910644531249994,-0.076609375,10.138771972656249,0.0,0.0,0.0,0.05018930955616862,359.59675604151573,51.34004949365033
2026-09-29 20:42:21.162511872,0.06463916015625,-0.0813974609375,10.20819921875,0.0,0.0,0.0,0.04943899447093211,359.5976987070738,51.34029756565218
2026-09-29 20:42:21.162511872,0.035910644531249994,-0.076609375,10.239321777343749,0.0,0.0010652644360316954,0.0010652644360316954,0.04864820824758621,359.5980591407511,51.34085074598184
2026-09-29 20:42:21.178248192,0.11252001953124999,-0.08379150390625,10.22495751953125,0.0,-0.0010652644360316954,0.0,0.04762184197727241,359.59796994632836,51.34109775019919
2026-09-29 20:42:21.178248192,0.03112255859375,-0.0909736328125,10.141166015624998,0.0,0.0,0.0,0.046600410453977316,359.5980123503678,51.34104007091371
2026-09-29 20:42:21.178248192,0.04548681640625,-0.07182128906249999,10.21059326171875,0.0,0.0,0.0,0.04543547728417888,359.5987554364581,51.34098354410152
2026-09-29 20:42:21.178248192,0.05266894531249999,-0.0813974609375,10.1746826171875,0.0,0.0,0.0,0.04451291582674736,359.5991009693724,51.34061981417922
2026-09-29 20:42:21.193766656,0.05745703125,-0.07900341796874999,10.21538134765625,0.0,0.0,0.0,0.044067707547979805,359.5987837682028,51.34056190240823
2026-09-29 20:42:21.193766656,0.0813974609375,-0.09815576171875,10.16989453125,0.0,0.0,0.0,0.04345273103907599,359.5988365269168,51.34019810928573
2026-09-29 20:42:21.209387008,0.076609375,-0.04548681640625,10.20819921875,0.0,0.0,0.0,0.04281088185362944,359.59835629701143,51.34013939040527
2026-09-29 20:42:21.225014016,0.047880859374999994,-0.035910644531249994,10.2034111328125,0.0,0.0,0.0,0.04243242139641401,359.59822367118744,51.34038429391468
