Timestamp,ax,ay,az,gx,gy,gz,roll,pitch,yaw
2026-09-24 20:45:06.652465408,2.61190087890625,-0.7325771484375,9.76530126953125,-0.0031957933080950856,0.0031957933080950856,-0.008522115488253563,355.50961439404716,345.2164788494191,320.17968366796237
2026-09-24 20:45:06.940372736,2.6382353515625,-0.7349711914062499,9.846698730468749,-0.0021305288720633907,0.004261057744126781,-0.004261057744126781,355.50854173114135,345.2195418295918,320.17520005260684
2026-09-24 20:45:06.948879104,2.6166889648437497,-0.78524609375,9.906549804687499,-0.0031957933080950856,0.007456851052221867,0.0,355.5063375333112,345.2238124018932,320.17350531337087
2026-09-24 20:45:06.948879104,2.64541748046875,-0.7613056640624999,9.863457031249999,-0.006391586616190171,0.012783173232380343,0.005326322180158476,355.50146675005686,345.23075893613225,320.1754461977452
2026-09-24 20:45:06.948879104,2.60232470703125,-0.7517294921875,9.7820595703125,-0.010652644360316953,0.014913702104443734,0.011717908796348648,355.49413265206033,345.2403540979921,320.18059842617754
2026-09-24 20:45:06.948879104,2.6095068359374998,-0.78524609375,9.817970214843749,-0.012783173232380343,0.017044230976507126,0.01810949541253882,355.48429678260146,345.25162797574245,320.1894351898143
2026-09-24 20:45:06.948879104,2.61190087890625,-0.8259448242187499,9.817970214843749,-0.01384843766841204,0.014913702104443734,0.022370553156665602,355.47245581238656,345.2627530438565,320.201535777884
2026-09-24 20:45:06.948879104,2.5735961914062497,-0.7972163085937499,9.851486816406249,-0.01384843766841204,0.01384843766841204,0.023435817592697295,355.4593379644046,345.2727751832833,320.2144853533474
2026-09-24 20:45:06.948879104,2.59274853515625,-0.8762197265624999,9.8490927734375,-0.009587379924285258,0.010652644360316953,0.024501082028728992,355.44827057988067,345.2816898713543,320.22813666769605
2026-09-24 20:45:06.948879104,2.59274853515625,-0.890583984375,9.834728515624999,-0.007456851052221867,0.008522115488253563,0.024501082028728992,355.4379001765998,345.289124799365,320.24201316154574
2026-09-24 20:45:06.948879104,2.5807783203124997,-0.8450971679687499,9.82754638671875,-0.0021305288720633907,0.004261057744126781,0.022370553156665602,355.4304510937523,345.2940605183935,320.255544434484
2026-09-24 20:45:06.948879104,2.60471875,-0.8738256835937499,9.8586689453125,0.0,0.0021305288720633907,0.019174759848570515,355.42538161836166,345.29736809866506,320.26718718028036
2026-09-24 20:45:06.948879104,2.61190087890625,-0.83552099609375,9.839516601562499,0.0,0.0021305288720633907,0.01597896654047543,355.4210838562739,345.3001985659683,320.2776352718789
2026-09-24 20:45:06.948879104,2.5712021484374996,-0.8450971679687499,9.829940429687499,0.0010652644360316954,0.0031957933080950856,0.014913702104443734,355.4185263255752,345.3032081538391,320.2867506831012
2026-09-24 20:45:06.948879104,2.5448676757812496,-0.83552099609375,9.8443046875,0.0010652644360316954,0.004261057744126781,0.01384843766841204,355.41645301127693,345.3066468592065,320.29483689301253
2026-09-24 20:45:06.964513280,2.5831723632812498,-0.8786137695312499,9.784453613281249,0.0010652644360316954,0.0021305288720633907,0.010652644360316953,355.41499049872067,345.30924942001695,320.30173916208236
2026-09-24 20:45:06.964513280,2.58556640625,-0.8953720703124999,9.8586689453125,0.005326322180158476,0.0,0.009587379924285258,355.4147166758826,345.3103222279854,320.30793857442336
2026-09-24 20:45:06.964513280,2.63105322265625,-0.8929780273437499,9.8586689453125,0.009587379924285258,-0.0031957933080950856,0.005326322180158476,355.41793324080516,345.3094184061246,320.3124027398153
2026-09-24 20:45:06.964513280,2.5831723632812498,-0.9264946289062499,9.8443046875,0.017044230976507126,-0.005326322180158476,0.0010652644360316954,355.4257546952539,345.3063021070918,320.31390394153493
2026-09-24 20:45:06.980138496,2.6358413085937498,-0.8738256835937499,9.856274902343749,0.02663161090079238,-0.006391586616190171,-0.0010652644360316954,355.43934790922066,345.3024656441335,320.31390967469235
2026-09-24 20:45:06.995761920,2.6166889648437497,-0.833126953125,9.796423828124999,0.03621899082507764,-0.004261057744126781,-0.0031957933080950856,355.45928837309737,345.29940775531753,320.3121562145491
2026-09-24 20:45:06.995761920,2.63105322265625,-0.7876401367187499,9.856274902343749,0.04261057744126781,-0.0010652644360316954,-0.004261057744126781,355.48367871013875,345.29687901703863,320.30932652894313
2026-09-24 20:45:06.995761920,2.6238710937499996,-0.7182128906249999,9.801211914062499,0.044741106313331204,0.0010652644360316954,-0.0031957933080950856,355.5102892443848,345.29686395123326,320.30672297610073
2026-09-24 20:45:07.011385856,2.68372216796875,-0.7445473632812499,9.83233447265625,0.039414784133172724,0.004261057744126781,-0.0031957933080950856,355.5348161866019,345.29812480913375,320.30391370284315
2026-09-24 20:45:07.011385856,2.63105322265625,-0.7158188476562499,9.817970214843749,0.03302319751698255,0.008522115488253563,-0.0010652644360316954,355.55595751056927,345.30127789010646,320.30191215483285
2026-09-24 20:45:07.011385856,2.5975366210937496,-0.7469414062499999,9.78924169921875,0.02876213977285577,0.009587379924285258,-0.0010652644360316954,355.57424045586106,345.30608109861566,320.30006615904915
2026-09-24 20:45:07.011385856,2.65499365234375,-0.72539501953125,9.8490927734375,0.02876213977285577,0.012783173232380343,-0.0021305288720633907,355.5915244268824,345.31234103463817,320.2978574812417
2026-09-24 20:45:07.011385856,2.6621757812499998,-0.72539501953125,9.882609375,0.029827404208887468,0.014913702104443734,0.0,355.6086320662885,345.3197503621228,320.29654269404915
2026-09-24 20:45:07.027008768,2.6765400390624996,-0.756517578125,9.853880859375,0.03302319751698255,0.017044230976507126,0.0010652644360316954,355.62716388423473,345.32858817688157,320.2963206244684
2026-09-24 20:45:07.027008768,2.6430234374999997,-0.6894843749999999,9.834728515624999,0.035153726389045944,0.02024002428460221,0.007456851052221867,355.64699389969053,345.33896571324675,320.2988737056971
2026-09-24 20:45:07.027008768,2.6525996093749997,-0.70145458984375,9.774877441406248,0.03621899082507764,0.025566346464760685,0.012783173232380343,355.6671400768109,345.35313445742435,320.3044749261103
2026-09-24 20:45:07.027008768,2.6573876953125,-0.6846962890624999,9.784453613281249,0.03302319751698255,0.02876213977285577,0.017044230976507126,355.68462392050935,345.3689891716842,320.3128298582932
2026-09-24 20:45:07.027008768,2.595142578125,-0.6870903320312499,9.856274902343749,0.02769687533682408,0.03195793308095086,0.02024002428460221,355.69946232841005,345.38693908268124,320.3228748942806
2026-09-24 20:45:07.027008768,2.6142949218749996,-0.7062426757812499,9.906549804687499,0.023435817592697295,0.03302319751698255,0.024501082028728992,355.7107598294826,345.40708122884365,320.33499832961127
2026-09-24 20:45:07.042633472,2.60471875,-0.7325771484375,9.940066406249999,0.021305288720633905,0.035153726389045944,0.02663161090079238,355.7198352096917,345.4282322749867,320.34907848684486
2026-09-24 20:45:07.042633472,2.6286591796875,-0.7158188476562499,9.930490234374998,0.019174759848570515,0.039414784133172724,0.02876213977285577,355.7274369802547,345.45149900808264,320.363954926461
2026-09-24 20:45:07.042633472,2.5903544921874997,-0.7134248046874999,9.923308105468749,0.017044230976507126,0.04154531300523612,0.03302319751698255,355.7334261440678,345.47655936525274,320.3808848568859
2026-09-24 20:45:07.042633472,2.5640200195312497,-0.699060546875,9.796423828124999,0.012783173232380343,0.04687163518539459,0.03728425526110934,355.73736488077543,345.5043992960257,320.40042443954883
2026-09-24 20:45:07.042633472,2.5568378906249998,-0.6631499023437499,9.834728515624999,0.010652644360316953,0.049002164057457984,0.04154531300523612,355.739392462859,345.5342806444374,320.42199269373816
2026-09-24 20:45:07.042633472,2.50656298828125,-0.6846962890624999,9.873033203124999,0.007456851052221867,0.04793689962142629,0.043675841877299504,355.7387453500785,345.5641547401977,320.44578069416866
2026-09-24 20:45:07.042633472,2.5328974609375,-0.7349711914062499,9.856274902343749,0.0010652644360316954,0.04261057744126781,0.043675841877299504,355.7347065103229,345.59196854576606,320.4694576496862
2026-09-24 20:45:07.042633472,2.5352915039062496,-0.7110307617187499,9.873033203124999,0.0,0.039414784133172724,0.04261057744126781,355.7290275749728,345.6173383923124,320.4927254445304
2026-09-24 20:45:07.042633472,2.5448676757812496,-0.7636997070312499,9.9209140625,0.0,0.04261057744126781,0.04261057744126781,355.7234221348572,345.64324080474216,320.51563357775314
2026-09-24 20:45:07.058261504,2.5735961914062497,-0.75412353515625,9.882609375,0.0021305288720633907,0.05006742849348968,0.0458063707493629,355.7176833792868,345.6728512759916,320.5402815147917
2026-09-24 20:45:07.058261504,2.5448676757812496,-0.7038486328125,9.817970214843749,0.004261057744126781,0.05858954398174324,0.05113269292952137,355.71318918273033,345.7078688936276,320.5669796879122
2026-09-24 20:45:07.058261504,2.5017749023437497,-0.7277890625,9.8203642578125,0.005326322180158476,0.06178533728983833,0.05645901510967985,355.7090985740076,345.7454967445211,320.5965205635015
2026-09-24 20:45:07.058261504,2.43474169921875,-0.7373652343749999,9.8490927734375,0.009587379924285258,0.06391586616190172,0.06178533728983833,355.7064075747038,345.78511993044197,320.62944951169237
2026-09-24 20:45:07.058261504,2.44431787109375,-0.7708818359374999,9.839516601562499,0.012783173232380343,0.06072007285380663,0.06391586616190172,355.7049058860408,345.82367727302665,320.66412044884373
2026-09-24 20:45:07.058261504,2.36770849609375,-0.7708818359374999,9.83712255859375,0.01384843766841204,0.054328486237616457,0.06498113059793341,355.70402106063267,345.85948978858966,320.6996754199126
2026-09-24 20:45:07.058261504,2.3988310546875,-0.7876401367187499,9.873033203124999,0.01810949541253882,0.05113269292952137,0.06498113059793341,355.704557352289,345.89350856002653,320.73570574854926
2026-09-24 20:45:07.058261504,2.39404296875,-0.81158056640625,9.86106298828125,0.017044230976507126,0.044741106313331204,0.06285060172587002,355.706201960108,345.9245573587415,320.77100390298403
2026-09-24 20:45:07.061495808,2.3868608398437496,-0.775669921875,9.813182128906249,0.021305288720633905,0.039414784133172724,0.06072007285380663,355.7086647886027,345.9520085272672,320.8054114004584
2026-09-24 20:45:07.064144896,2.4275595703125,-0.7924282226562499,9.82275830078125,0.023435817592697295,0.035153726389045944,0.06072007285380663,355.71267425860333,345.97615182216583,320.84003647422304
2026-09-24 20:45:07.064144896,2.4084072265625,-0.8020043945312499,9.8873974609375,0.02876213977285577,0.03195793308095086,0.06072007285380663,355.71955019547306,345.9983618727534,320.87417655742934
2026-09-24 20:45:07.086888192,2.4275595703125,-0.7876401367187499,9.8778212890625,0.03408846195301425,0.02769687533682408,0.05858954398174324,355.72918735914965,346.01836066612077,320.9079019729288
2026-09-24 20:45:07.087914496,2.4084072265625,-0.8259448242187499,9.89936767578125,0.04048004856920442,0.02663161090079238,0.05858954398174324,355.7421723331661,346.0369899685498,320.9416990435688
2026-09-24 20:45:07.088881920,2.4036191406249996,-0.8522792968749999,9.90894384765625,0.05113269292952137,0.024501082028728992,0.05645901510967985,355.76111415639036,346.0546672942981,320.97442052769503
2026-09-24 20:45:07.088881920,2.4036191406249996,-0.7613056640624999,9.86106298828125,0.05645901510967985,0.021305288720633905,0.05326322180158476,355.7842797161939,346.070497289322,321.0056665022669
2026-09-24 20:45:07.090928896,2.42516552734375,-0.7636997070312499,9.930490234374998,0.06178533728983833,0.01810949541253882,0.05113269292952137,355.8115107900672,346.08365264344104,321.0354231980671
2026-09-24 20:45:07.096580352,2.4179833984375,-0.7421533203124999,9.86585107421875,0.06285060172587002,0.019174759848570515,0.0458063707493629,355.8410177448476,346.09667366344735,321.0619563212945
2026-09-24 20:45:07.104002816,2.4945927734374997,-0.7038486328125,9.96640087890625,0.06391586616190172,0.023435817592697295,0.04261057744126781,355.8715346035667,346.11167803489616,321.08640400738034
2026-09-24 20:45:07.104002816,2.43474169921875,-0.6799082031249999,9.841910644531248,0.06285060172587002,0.025566346464760685,0.039414784133172724,355.90246863222217,346.12804137665654,321.1090809410305
2026-09-24 20:45:07.120566784,2.3988310546875,-0.6056928710937499,9.806,0.06072007285380663,0.02663161090079238,0.03728425526110934,355.9330878583219,346.1451824684298,321.13010277181183
2026-09-24 20:45:07.135618048,2.4275595703125,-0.59372265625,9.78684765625,0.05113269292952137,0.02024002428460221,0.03408846195301425,355.96026197981075,346.15948125323484,321.1493503192849
2026-09-24 20:45:07.135618048,2.3701025390624997,-0.6607558593749999,9.79881787109375,0.049002164057457984,0.014913702104443734,0.030892668644919165,355.98478656959725,346.17046029700566,321.16725900458306
2026-09-24 20:45:07.173072384,2.41080126953125,-0.6942724609375,9.86585107421875,0.054328486237616457,0.010652644360316953,0.03195793308095086,356.0113630834712,346.1791039844282,321.1858723732036
2026-09-24 20:45:07.173072384,2.4155893554687498,-0.6894843749999999,9.8490927734375,0.05645901510967985,0.008522115488253563,0.03302319751698255,356.0389212288103,346.1868325578857,321.2046082791259
2026-09-24 20:45:07.182578688,2.3964370117187497,-0.6392094726562499,9.90415576171875,0.06285060172587002,0.007456851052221867,0.035153726389045944,356.06947270078854,346.19337197204374,321.22433046280804
2026-09-24 20:45:07.182578688,2.4395297851562496,-0.6344213867187499,9.87542724609375,0.0681769239060285,0.007456851052221867,0.035153726389045944,356.1035343960183,346.1996241998654,321.2443353720298
2026-09-24 20:45:07.198345984,2.4299536132812496,-0.6176630859375,9.841910644531248,0.07350324608618697,0.006391586616190171,0.035153726389045944,356.140419608475,346.2053111020168,321.2647140425146
2026-09-24 20:45:07.204776192,2.4371357421875,-0.5697822265625,9.885003417968749,0.07669903939428206,0.0021305288720633907,0.03408846195301425,356.1800884149489,346.2086776858411,321.2847850922406
2026-09-24 20:45:07.204776192,2.4658642578124996,-0.5985107421875,9.93288427734375,0.07882956826634545,-0.0021305288720633907,0.03302319751698255,356.2211001835004,346.209420505538,321.3047105065117
2026-09-24 20:45:07.227085824,2.461076171875,-0.57217626953125,9.901761718749999,0.08096009713840883,-0.008522115488253563,0.03302319751698255,356.2634985554749,346.2062598399561,321.32460685678103
2026-09-24 20:45:07.233880064,2.4826225585937496,-0.5697822265625,9.9640068359375,0.08096009713840883,-0.01384843766841204,0.03302319751698255,356.3067345263861,346.19996654136753,321.3447114968617
2026-09-24 20:45:07.250138112,2.5017749023437497,-0.62484521484375,9.9640068359375,0.07989483270237714,-0.01597896654047543,0.02769687533682408,356.3498059593518,346.191116637667,321.36210381063836
2026-09-24 20:45:07.250666240,2.4826225585937496,-0.6176630859375,9.961612792968749,0.08096009713840883,-0.017044230976507126,0.02769687533682408,356.39279082381495,346.1817736894651,321.3790105072838
2026-09-24 20:45:07.250666240,2.5352915039062496,-0.641603515625,9.944854492187499,0.08096009713840883,-0.014913702104443734,0.025566346464760685,356.4360912465714,346.1726607031195,321.394634086985
2026-09-24 20:45:07.270685184,2.57838427734375,-0.59611669921875,9.935278320312499,0.07989483270237714,-0.012783173232380343,0.022370553156665602,356.48003841919683,346.1646989493287,321.40859926484325
2026-09-24 20:45:07.282241536,2.55923193359375,-0.61526904296875,9.952036621093749,0.07989483270237714,-0.010652644360316953,0.022370553156665602,356.5233940594696,346.15759249858115,321.4221865848596
2026-09-24 20:45:07.299203072,2.5544438476562497,-0.6032988281249999,9.923308105468749,0.08096009713840883,-0.007456851052221867,0.021305288720633905,356.5672807734764,346.1525988925032,321.43499889899516
2026-09-24 20:45:07.303921664,2.5424736328125,-0.5985107421875,9.89936767578125,0.08096009713840883,-0.005326322180158476,0.02024002428460221,356.6112060022199,346.14900456591994,321.4474329056482
2026-09-24 20:45:07.303921664,2.56880810546875,-0.6463916015625,9.885003417968749,0.08522115488253562,-0.0031957933080950856,0.019174759848570515,356.65721686715784,346.145826813428,321.4592508393365
2026-09-24 20:45:07.326069248,2.5328974609375,-0.66793798828125,9.8778212890625,0.08948221262666241,-0.0021305288720633907,0.02024002428460221,356.70457167812185,346.14355729713117,321.47179688430225
2026-09-24 20:45:07.330077696,2.52571533203125,-0.7134248046874999,9.913731933593748,0.10120012142301105,0.0,0.019174759848570515,356.75753982143783,346.1427417630189,321.48372712898896
2026-09-24 20:45:07.347098368,2.5664140625,-0.7469414062499999,9.90894384765625,0.12357067457967666,0.0,0.01810949541253882,356.8205979673458,346.14215827963744,321.49489500829105
2026-09-24 20:45:07.361651200,2.60232470703125,-0.7996103515624999,9.846698730468749,0.14807175660840563,0.0021305288720633907,0.019174759848570515,356.8971338025051,346.1423748937137,321.50672422098154
2026-09-24 20:45:07.377287168,2.6573876953125,-0.7158188476562499,9.846698730468749,0.17363810307316632,0.008522115488253563,0.022370553156665602,356.98721855816785,346.14595052582484,321.52003528999785
2026-09-24 20:45:07.392910336,2.6573876953125,-0.59611669921875,9.808394042968748,0.18855180517761005,0.019174759848570515,0.025566346464760685,357.0879672024586,346.1537445864155,321.534816105248
2026-09-24 20:45:07.392910336,2.69808642578125,-0.50514306640625,9.777271484375,0.19174759848570516,0.02876213977285577,0.029827404208887468,357.1932373980235,346.1672559443724,321.5511994464335
2026-09-24 20:45:07.404375296,2.63105322265625,-0.44050390624999997,9.774877441406248,0.18748654074157836,0.04048004856920442,0.03408846195301425,357.29707654097524,346.1876083170614,321.5692596961374
2026-09-24 20:45:07.404375296,2.5640200195312497,-0.42613964843749996,9.808394042968748,0.1810949541253882,0.049002164057457984,0.03728425526110934,357.3976612370432,346.21315936931757,321.5895714430158
2026-09-24 20:45:07.404375296,2.54965576171875,-0.45965625,9.79881787109375,0.1757686319452297,0.05326322180158476,0.03728425526110934,357.4941975775244,346.2422461219147,321.6101857031923
2026-09-24 20:45:07.422475264,2.5185332031249996,-0.46923242187499997,9.83233447265625,0.17683389638126143,0.054328486237616457,0.03834951969714103,357.5898562696153,346.27288921854256,321.6312184190517
2026-09-24 20:45:07.422475264,2.51613916015625,-0.44768603515624994,9.791635742187498,0.17470336750919802,0.05645901510967985,0.035153726389045944,357.6844998977937,346.3046119222831,321.6517102798328
2026-09-24 20:45:07.437286912,2.4898046875,-0.34234814453124995,9.779665527343749,0.17257283863713463,0.059654808417774936,0.035153726389045944,357.77929445254546,346.338077940828,321.6708189657965
2026-09-24 20:45:07.455295488,2.47065234375,-0.24179833984375,9.7724833984375,0.16192019427681767,0.059654808417774936,0.03195793308095086,357.8713637505053,346.3721655001635,321.6887776129603
2026-09-24 20:45:07.469044736,2.365314453125,-0.10533789062499999,9.75572509765625,0.14061490555618378,0.059654808417774936,0.030892668644919165,357.95330431394035,346.406592704048,321.7056150505007
2026-09-24 20:45:07.477529600,2.374890625,0.067033203125,9.662357421874999,0.10652644360316953,0.05752427954571154,0.02769687533682408,358.02003689538253,346.4410423846547,321.72059518332554
2026-09-24 20:45:07.488452864,2.2264599609375,0.13646044921875,9.68390380859375,0.05645901510967985,0.05113269292952137,0.024501082028728992,358.0621191917369,346.47240774813315,321.7334252698954
2026-09-24 20:45:07.488452864,2.1833671875,0.08857958984374999,9.873033203124999,0.004261057744126781,0.035153726389045944,0.01810949541253882,358.0746280222097,346.4968496379731,321.7426813391168
2026-09-24 20:45:07.523782656,2.22406591796875,0.009576171875,9.973583007812499,-0.023435817592697295,0.011717908796348648,0.009587379924285258,358.0668006454502,346.5101354859129,321.7480805750646
2026-09-24 20:45:07.527909888,2.231248046875,-0.09336767578124999,9.98076513671875,-0.03728425526110934,-0.0021305288720633907,0.0010652644360316954,358.04935479112015,346.51303625358406,321.74946900344116
2026-09-24 20:45:07.531928832,2.2719467773437496,-0.14603662109374999,9.973583007812499,-0.04048004856920442,-0.010652644360316953,-0.0021305288720633907,358.0288154333644,346.50979734772375,321.74772624121783
2026-09-24 20:45:07.540436992,2.3365859374999998,-0.17715917968749997,10.007099609374999,-0.02663161090079238,-0.011717908796348648,-0.005326322180158476,358.01286584038525,346.50408590977094,321.7444065819122
2026-09-24 20:45:07.540436992,2.3413740234375,-0.162794921875,10.052586425781248,-0.009587379924285258,-0.007456851052221867,-0.005326322180158476,358.00781587167546,346.4997108905472,321.740085365659
2026-09-24 20:45:07.556534016,2.3437680664062497,-0.047880859374999994,9.947248535156248,-0.0021305288720633907,-0.0010652644360316954,-0.005326322180158476,358.009069517905,346.4988610587386,321.7358189390714
2026-09-24 20:45:07.564538880,2.4084072265625,-0.00239404296875,9.93767236328125,-0.005326322180158476,0.0010652644360316954,-0.009587379924285258,358.01054315428064,346.50024794647607,321.72935446138484
2026-09-24 20:45:07.574084864,2.4395297851562496,0.04548681640625,9.935278320312499,-0.01810949541253882,0.0031957933080950856,-0.014913702104443734,358.00748497240414,346.5028054912563,321.7198026240903
2026-09-24 20:45:07.604228352,2.4060131835937497,0.011970214843749999,9.928096191406249,-0.03728425526110934,0.0021305288720633907,-0.024501082028728992,357.99581957899403,346.5044420591046,321.70517419346004
2026-09-24 20:45:07.604228352,2.44431787109375,-0.0383046875,9.973583007812499,-0.06178533728983833,0.0010652644360316954,-0.03408846195301425,357.97194446560275,346.50545030132207,321.68470814510823
2026-09-24 20:45:07.608777728,2.4921987304687496,-0.0622451171875,9.885003417968749,-0.07882956826634545,0.0010652644360316954,-0.04261057744126781,357.93724107409895,346.5048764066027,321.6590625798242
2026-09-24 20:45:07.613969152,2.51613916015625,-0.11730810546874999,9.90894384765625,-0.0905474770626941,0.008522115488253563,-0.05006742849348968,357.89566671512597,346.5075205334297,321.62931585465145
2026-09-24 20:45:07.624130304,2.4826225585937496,-0.19391748046875,9.873033203124999,-0.10120012142301105,0.02024002428460221,-0.05219795736555307,357.84851269296297,346.51514760264297,321.59724105908055
2026-09-24 20:45:07.624857856,2.4227714843749997,-0.23461621093749999,9.8778212890625,-0.11078750134729631,0.03408846195301425,-0.04793689962142629,357.7946569298544,346.5315531079387,321.5662511025403
2026-09-24 20:45:07.637589504,2.461076171875,-0.2824970703125,9.885003417968749,-0.111852765783328,0.044741106313331204,-0.044741106313331204,357.7380247866395,346.55465410409,321.53693075068253
2026-09-24 20:45:07.654753536,2.37249658203125,-0.3495302734375,9.885003417968749,-0.10972223691126462,0.05326322180158476,-0.03834951969714103,357.6806185740588,346.5830500310826,321.51104130447595
2026-09-24 20:45:07.654753536,2.3509501953124996,-0.4165634765625,9.906549804687499,-0.10652644360316953,0.059654808417774936,-0.03302319751698255,357.62342352516714,346.61631784834026,321.4885331540704
2026-09-24 20:45:07.684933888,2.38207275390625,-0.44050390624999997,9.947248535156248,-0.10333065029507445,0.06391586616190172,-0.02663161090079238,357.5662367342803,346.65265395402713,321.4703844891209
2026-09-24 20:45:07.687570944,2.3509501953124996,-0.46683837890624996,9.86585107421875,-0.09587379924285258,0.07137271721412358,-0.01597896654047543,357.51225516996027,346.69318025265557,321.45702870538327
2026-09-24 20:45:07.700576256,2.3102514648437498,-0.49317285156249996,9.9257021484375,-0.0916127414987258,0.07563377495825037,-0.004261057744126781,357.4589616200844,346.7371143515846,321.4501399048195
2026-09-24 20:45:07.704120832,2.33897998046875,-0.5219013671874999,9.863457031249999,-0.08948221262666241,0.08202536157444054,0.006391586616190171,357.40533198145454,346.7844627025385,321.4503300592476
2026-09-24 20:45:07.704120832,2.2647646484374997,-0.5793583984374999,9.834728515624999,-0.07989483270237714,0.08735168375459901,0.021305288720633905,357.35407237167533,346.8357144279604,321.4591292179027
2026-09-24 20:45:07.744327680,2.2551884765624997,-0.64878564453125,9.87542724609375,-0.07350324608618697,0.0916127414987258,0.03621899082507764,357.304424683366,346.8897744953348,321.4757436463625
2026-09-24 20:45:07.754120192,2.231248046875,-0.699060546875,9.90894384765625,-0.059654808417774936,0.09480853480682087,0.04793689962142629,357.2589666656841,346.94649245024914,321.4998568164655
2026-09-24 20:45:07.769746176,2.2264599609375,-0.83552099609375,9.949642578125,-0.03621899082507764,0.10013485698697935,0.06178533728983833,357.2239215691244,347.00651128096484,321.5314559996948
2026-09-24 20:45:07.793840128,2.20012548828125,-0.83073291015625,10.002311523437498,-0.010652644360316953,0.10226538585904274,0.07030745277809189,357.2006365391434,347.06814024933067,321.56948563410475
2026-09-24 20:45:07.793840128,2.1929433593749996,-0.8403090820312499,9.995129394531249,0.017044230976507126,0.10546117916713783,0.08202536157444054,357.1921805332887,347.13242170298486,321.6139320304108
2026-09-24 20:45:07.814226688,2.1785791015625,-0.8427031249999999,10.05498046875,0.05113269292952137,0.10759170803920122,0.0916127414987258,357.20210970507003,347.1971978628119,321.6642616572007
2026-09-24 20:45:07.814226688,2.16182080078125,-0.85946142578125,10.019069824218748,0.07989483270237714,0.10546117916713783,0.09693906367888427,357.2281689963418,347.2621297474606,321.71840040247406
2026-09-24 20:45:07.814226688,2.1594267578124997,-0.8403090820312499,9.9640068359375,0.10865697247523291,0.10013485698697935,0.10333065029507445,357.269936840351,347.32445764652243,321.77612627305285
2026-09-24 20:45:07.814226688,2.16182080078125,-0.756517578125,9.98076513671875,0.13422331893999362,0.09374327037078918,0.10652644360316953,357.3265295553917,347.3830347028075,321.8369063618638
2026-09-24 20:45:07.814226688,2.1977314453125,-0.6583618164062499,9.9257021484375,0.15446334322459582,0.08841694819063071,0.10439591473110614,357.3965842290538,347.43806613914995,321.8970265671888
2026-09-24 20:45:07.825900032,2.2551884765624997,-0.47641455078124995,9.873033203124999,0.1587244009687226,0.08735168375459901,0.10226538585904274,357.47360327291483,347.4912068500589,321.9553785231568
2026-09-24 20:45:07.825900032,2.2575825195312498,-0.2537685546875,9.90894384765625,0.1384843766841204,0.08735168375459901,0.09693906367888427,357.54454234451924,347.543058276507,322.01061031977815
2026-09-24 20:45:07.841229312,2.20012548828125,-0.19870556640624998,9.911337890625,0.10013485698697935,0.08841694819063071,0.09374327037078918,357.59924463748115,347.5956129849518,322.0631983672225
2026-09-24 20:45:07.854796032,2.19054931640625,-0.16040087890625,9.940066406249999,0.054328486237616457,0.0905474770626941,0.0916127414987258,357.6284698077985,347.6495588074924,322.1144209654621
2026-09-24 20:45:07.878239232,2.14745654296875,-0.26095068359374995,10.01428173828125,0.01597896654047543,0.08841694819063071,0.08841694819063071,357.6343079591316,347.70273842744547,322.1641854662055
2026-09-24 20:45:07.879347200,2.1235161132812497,-0.41416943359374997,10.057374511718749,-0.010652644360316953,0.07456851052221868,0.08415589044650393,357.6220533146062,347.7513041859878,322.211275298583
2026-09-24 20:45:07.879347200,2.08521142578125,-0.5123251953125,10.04779833984375,-0.02024002428460221,0.06711165946999681,0.08096009713840883,357.6002090988714,347.79465874023515,322.25764457332565
2026-09-24 20:45:07.890717696,2.15703271484375,-0.6080869140624999,10.023857910156249,-0.01597896654047543,0.05858954398174324,0.07776430383031376,357.5783301145345,347.83277892039206,322.30257143758786
2026-09-24 20:45:07.907996672,2.068453125,-0.6655439453124999,10.011887695312499,-0.005326322180158476,0.05645901510967985,0.07989483270237714,357.56044031173377,347.8683485582552,322.34805938627517
2026-09-24 20:45:07.921181184,2.05169482421875,-0.6104809570312499,9.944854492187499,0.011717908796348648,0.05645901510967985,0.07989483270237714,357.5525216038644,347.90372571592906,322.3936485185268
2026-09-24 20:45:07.921181184,2.06605908203125,-0.59611669921875,9.923308105468749,0.021305288720633905,0.05539375067364816,0.08202536157444054,357.5522900690791,347.9385760110299,322.44037611732665
2026-09-24 20:45:07.937489920,2.06605908203125,-0.44289794921875,9.889791503906249,0.02663161090079238,0.05113269292952137,0.08415589044650393,357.5557314890917,347.97128817915006,322.48831952304766
2026-09-24 20:45:07.951995392,2.0828173828125,-0.45726220703125,9.952036621093749,0.025566346464760685,0.05006742849348968,0.08628641931856731,357.5595341033523,348.00297494071185,322.53765441960877
2026-09-24 20:45:07.954088192,2.0277543945312497,-0.45726220703125,9.9544306640625,0.024501082028728992,0.05113269292952137,0.08948221262666241,357.56274711471127,348.0355319059285,322.5885033409298
2026-09-24 20:45:07.954088192,1.9846616210937498,-0.5314775390625,9.944854492187499,0.02769687533682408,0.04793689962142629,0.0905474770626941,357.5671934729669,348.0667108314593,322.6397890369025
2026-09-24 20:45:07.987669760,2.0062080078125,-0.55781201171875,9.923308105468749,0.03728425526110934,0.04154531300523612,0.08948221262666241,357.57525999227363,348.0953408078553,322.69163713587125
2026-09-24 20:45:08.003174656,1.9056582031249998,-0.55781201171875,9.9209140625,0.044741106313331204,0.02769687533682408,0.08841694819063071,357.58817493928103,348.1171451456183,322.74287868714515
2026-09-24 20:45:08.018805760,1.9295986328124999,-0.51471923828125,9.9640068359375,0.05219795736555307,0.012783173232380343,0.08096009713840883,357.6057525805758,348.13038640748357,322.79136119079794
2026-09-24 20:45:08.018805760,1.97029736328125,-0.47880859374999996,9.89936767578125,0.05539375067364816,0.0,0.07243798165015528,357.6275455828946,348.1354307065943,322.83515663207163
2026-09-24 20:45:08.034430464,1.9774794921874999,-0.38065283203124994,9.940066406249999,0.05006742849348968,-0.009587379924285258,0.06285060172587002,357.65024433387487,348.1333554828495,322.8737646298111
2026-09-24 20:45:08.036053760,1.9295986328124999,-0.3064375,9.901761718749999,0.03621899082507764,-0.01810949541253882,0.049002164057457984,357.6674662139098,348.1262943295545,322.9049499737626
2026-09-24 20:45:08.038117632,1.9822675781249999,-0.39741113281249996,9.96640087890625,0.024501082028728992,-0.03728425526110934,0.043675841877299504,357.6791082119286,348.1109251190455,322.93105297670735
2026-09-24 20:45:08.045444608,2.2647646484374997,-0.30883154296875,9.961612792968749,0.007456851052221867,-0.030892668644919165,0.021305288720633905,357.68502816045583,348.0907168137434,322.9477448321944
2026-09-24 20:45:08.072365824,2.0373305664062498,-0.392623046875,10.07652685546875,-0.0031957933080950856,-0.021305288720633905,0.008522115488253563,357.6833033683454,348.0777404566713,322.9553061797275
2026-09-24 20:45:08.090422272,2.078029296875,-0.3878349609375,10.045404296874999,-0.004261057744126781,-0.03408846195301425,-0.006391586616190171,357.6806070610957,348.0615248091289,322.95319833594164
2026-09-24 20:45:08.090422272,2.20970166015625,-0.40459326171875,10.040616210937499,-0.0031957933080950856,-0.030892668644919165,-0.019174759848570515,357.67992713681485,348.04293185967623,322.9446467904239
2026-09-24 20:45:08.110963200,2.12591015625,-0.34234814453124995,9.978371093749999,-0.006391586616190171,-0.03302319751698255,-0.03195793308095086,357.67949653014404,348.02339307316555,322.92790816786925
2026-09-24 20:45:08.121672704,2.1785791015625,-0.34234814453124995,9.978371093749999,-0.008522115488253563,-0.03728425526110934,-0.049002164057457984,357.68056514928924,348.0023795229363,322.90207830267553
2026-09-24 20:45:08.121672704,2.1498505859374997,-0.35192431640625,9.968794921874998,-0.009587379924285258,-0.0458063707493629,-0.0692421883420602,357.68295682263306,347.9759869309348,322.86522603062133
2026-09-24 20:45:08.134710784,2.2168837890625,-0.40698730468749994,9.978371093749999,-0.011717908796348648,-0.06285060172587002,-0.0916127414987258,357.68623996987697,347.94064621558323,322.8156924211394
2026-09-24 20:45:08.146824448,2.2815229492187497,-0.38544091796874996,9.913731933593748,-0.008522115488253563,-0.07456851052221868,-0.11078750134729631,357.6930187334019,347.89639459752783,322.75501132313843
2026-09-24 20:45:08.146824448,2.3413740234375,-0.35671240234374996,10.019069824218748,-0.005326322180158476,-0.07989483270237714,-0.12570120345174005,357.70432436268527,347.84643179642444,322.68512153315885
2026-09-24 20:45:08.162040832,2.4562880859374996,-0.36389453125,9.9257021484375,-0.0021305288720633907,-0.07563377495825037,-0.1331580545039619,357.71853994874994,347.7975853573715,322.6091299708205
2026-09-24 20:45:08.163045632,2.5807783203124997,-0.37347070312499997,9.9209140625,0.005326322180158476,-0.05645901510967985,-0.1331580545039619,357.7379044897173,347.75465529930324,322.53187892267977
2026-09-24 20:45:08.163045632,2.5041689453125,-0.3782587890625,9.949642578125,0.011717908796348648,-0.029827404208887468,-0.12783173232380343,357.7608795042671,347.7270798429607,322.4561776196616
2026-09-24 20:45:08.187025408,2.499380859375,-0.32558984375,9.89936767578125,0.011717908796348648,-0.010652644360316953,-0.11930961683554987,357.7838662105646,347.711555134389,322.3847000808372
2026-09-24 20:45:08.218587904,2.4467119140625,-0.27770898437499997,9.9257021484375,0.008522115488253563,0.004261057744126781,-0.10120012142301105,357.8032361912078,347.7070156716455,322.3223796821101
2026-09-24 20:45:08.234223360,2.5376855468749997,-0.33037792968749996,9.834728515624999,0.007456851052221867,0.022370553156665602,-0.08415589044650393,357.81981666220673,347.7112131632527,322.2696854014425
2026-09-24 20:45:08.234223360,2.39404296875,-0.41895751953125,9.99991748046875,0.004261057744126781,0.043675841877299504,-0.07030745277809189,357.83262747094886,347.7296815138694,322.22468615117896
2026-09-24 20:45:08.234223360,2.5041689453125,-0.36868261718749995,9.911337890625,0.005326322180158476,0.04687163518539459,-0.05858954398174324,357.8430662401473,347.75165841158577,322.1872797266199
2026-09-24 20:45:08.234223360,2.4275595703125,-0.45486816406249997,9.990341308593749,0.008522115488253563,0.07137271721412358,-0.04687163518539459,357.85402080391447,347.78394458059694,322.15592500725745
2026-09-24 20:45:08.234223360,2.26715869140625,-0.5027490234374999,10.002311523437498,0.012783173232380343,0.07776430383031376,-0.03728425526110934,357.8648226503829,347.8259612429725,322.1307321838193
2026-09-24 20:45:08.255202304,2.35813232421875,-0.47641455078124995,9.973583007812499,0.014913702104443734,0.07669903939428206,-0.02876213977285577,357.87626627727684,347.86806575911413,322.11001576555157
2026-09-24 20:45:08.290369024,2.26237060546875,-0.45247412109374996,9.949642578125,0.012783173232380343,0.07669903939428206,-0.02024002428460221,357.88649050858754,347.9098725437017,322.09486558387533
2026-09-24 20:45:08.290369024,2.2910991210937497,-0.51471923828125,9.949642578125,0.014913702104443734,0.07350324608618697,-0.011717908796348648,357.89608799464645,347.95085974376144,322.0847321045211
2026-09-24 20:45:08.304322816,2.29588720703125,-0.49077880859374995,9.956824707031249,0.014913702104443734,0.07989483270237714,-0.0010652644360316954,357.90418236323876,347.9936976039385,322.0805829769308
2026-09-24 20:45:08.304322816,2.2743408203124997,-0.53387158203125,10.0310400390625,0.024501082028728992,0.08735168375459901,0.010652644360316953,357.91458408541655,348.0415297369373,322.08340784080787
2026-09-24 20:45:08.304322816,2.3102514648437498,-0.53387158203125,9.968794921874998,0.035153726389045944,0.09374327037078918,0.024501082028728992,357.9295434924567,348.09401611846914,322.0943054679124
2026-09-24 20:45:08.304322816,2.250400390625,-0.51711328125,10.00470556640625,0.04687163518539459,0.10652644360316953,0.039414784133172724,357.9490456935333,348.15245672262995,322.1130724886785
2026-09-24 20:45:08.329290752,2.2599765625,-0.47402050781249994,9.96640087890625,0.059654808417774936,0.11824435239951818,0.05219795736555307,357.9746512790849,348.21784934162963,322.1397117700507
2026-09-24 20:45:08.329290752,2.2073076171875,-0.51471923828125,9.995129394531249,0.06711165946999681,0.13422331893999362,0.06178533728983833,358.00377579032903,348.29149217332775,322.1722848708971
2026-09-24 20:45:08.345156096,2.1450625,-0.50514306640625,9.9927353515625,0.07669903939428206,0.14594122773634224,0.07030745277809189,358.0372665614993,348.3736172524493,322.20964507673665
2026-09-24 20:45:08.345156096,2.0971816406249997,-0.48838476562499994,9.95921875,0.08309062601047223,0.14807175660840563,0.07137271721412358,358.07501345591754,348.4593395705858,322.24843865090884
2026-09-24 20:45:08.364711680,1.9750854492187497,-0.39022900390625,9.961612792968749,0.08735168375459901,0.14487596330031055,0.07137271721412358,358.1153537402201,348.5439530423552,322.28760584780525
2026-09-24 20:45:08.401535232,1.9487509765624997,-0.38065283203124994,10.00949365234375,0.08735168375459901,0.1352885833760253,0.06711165946999681,358.15730844208144,348.6252130391673,322.32557206710334
2026-09-24 20:45:08.421783040,1.9726914062499998,-0.37586474609375,9.956824707031249,0.08628641931856731,0.12570120345174005,0.06178533728983833,358.19994608257724,348.7005288691642,322.3597042120408
2026-09-24 20:45:08.421783040,1.9535390624999998,-0.35192431640625,9.97118896484375,0.08096009713840883,0.11504855909142309,0.054328486237616457,358.240715882576,348.7695008581078,322.3900048126171
2026-09-24 20:45:08.449317888,1.9679033203124998,-0.3112255859375,9.985553222656248,0.07669903939428206,0.10652644360316953,0.04687163518539459,358.2801038766437,348.83321919351954,322.4167692978972
2026-09-24 20:45:08.449317888,1.9319926757812498,-0.3495302734375,10.03822216796875,0.07350324608618697,0.10226538585904274,0.03728425526110934,358.31818008692704,348.89408963488603,322.4380406712713
2026-09-24 20:45:08.449317888,1.9319926757812498,-0.37107666015624996,9.990341308593749,0.07243798165015528,0.09693906367888427,0.02876213977285577,358.35588151261413,348.95114602863634,322.4545705431008
2026-09-24 20:45:08.449317888,1.8960820312499997,-0.36628857421875,9.9975234375,0.07137271721412358,0.08841694819063071,0.01810949541253882,358.39407255912056,349.00428058342067,322.4656965177763
2026-09-24 20:45:08.453912320,1.8697475585937497,-0.40219921875,10.002311523437498,0.07137271721412358,0.07989483270237714,0.008522115488253563,358.43346478181445,349.05232214644656,322.47077962876483
2026-09-24 20:45:08.454312448,1.8793237304687498,-0.35910644531249997,10.064556640625,0.07456851052221868,0.07137271721412358,-0.0010652644360316954,358.4745244695164,349.0955449781882,322.47054763422454
2026-09-24 20:45:08.487923712,1.8888999023437498,-0.38065283203124994,10.01428173828125,0.07882956826634545,0.06072007285380663,-0.01384843766841204,358.5194149258358,349.13218382435855,322.4629927578002
2026-09-24 20:45:08.519602944,1.8912939453125,-0.35671240234374996,9.995129394531249,0.08415589044650393,0.05539375067364816,-0.023435817592697295,358.5680619090933,349.1649194622164,322.4496746201647
2026-09-24 20:45:08.519602944,1.8984760742187499,-0.40219921875,9.995129394531249,0.08841694819063071,0.05219795736555307,-0.03728425526110934,358.6206379720111,349.1955949471192,322.42865718960354
2026-09-24 20:45:08.551034112,1.9008701171874998,-0.33756005859375,10.0310400390625,0.09267800593475749,0.04793689962142629,-0.049002164057457984,358.6764858298924,349.22394353069217,322.40096793105346
2026-09-24 20:45:08.567056640,1.9391748046875,-0.31361962890624995,9.9927353515625,0.09906959255094766,0.04687163518539459,-0.05752427954571154,358.73732422484255,349.2504865191449,322.3676327424211
2026-09-24 20:45:08.567056640,1.9990258789062498,-0.22504003906249997,9.9544306640625,0.10120012142301105,0.05219795736555307,-0.06285060172587002,358.8020106102016,349.2783971632285,322.33048538898584
2026-09-24 20:45:08.582700288,1.9583271484374998,-0.14603662109374999,10.019069824218748,0.09693906367888427,0.06391586616190172,-0.06391586616190172,358.8658601383053,349.3112781827213,322.2918753855267
2026-09-24 20:45:08.582700288,1.9511450195312499,-0.13646044921875,9.97597705078125,0.09267800593475749,0.06711165946999681,-0.06072007285380663,358.92759389847174,349.3478920939016,322.2543776208094
2026-09-24 20:45:08.582700288,1.86017138671875,-0.12209619140624998,10.023857910156249,0.08841694819063071,0.0692421883420602,-0.05539375067364816,358.9864868171097,349.38616908861235,322.21936445662124
2026-09-24 20:45:08.582700288,1.91284033203125,-0.12209619140624998,10.050192382812499,0.08522115488253562,0.07137271721412358,-0.05219795736555307,359.04253584397054,349.4265742864037,322.18684292514763
2026-09-24 20:45:08.582700288,1.86495947265625,-0.1149140625,10.062162597656249,0.08522115488253562,0.07456851052221868,-0.04793689962142629,359.0974103520358,349.4680592272752,322.156895119076
2026-09-24 20:45:08.582700288,1.8482011718749998,-0.15082470703124998,9.9975234375,0.08522115488253562,0.07882956826634545,-0.0458063707493629,359.1516799709309,349.5128099945744,322.12820068316
2026-09-24 20:45:08.598322432,1.80271435546875,-0.16518896484374998,10.05498046875,0.08841694819063071,0.08202536157444054,-0.0458063707493629,359.2071807533546,349.5598950485954,322.10022771417493
2026-09-24 20:45:08.598322432,1.7644096679687498,-0.13406640625,10.04779833984375,0.08841694819063071,0.07882956826634545,-0.0458063707493629,359.26253748717266,349.60616813116866,322.07234120980894
2026-09-24 20:45:08.598322432,1.7524394531249998,-0.076609375,10.0693447265625,0.08628641931856731,0.07243798165015528,-0.04793689962142629,359.3172185253923,349.6498608000568,322.04389157328427
2026-09-24 20:45:08.598322432,1.771591796875,-0.07900341796874999,10.040616210937499,0.08309062601047223,0.06072007285380663,-0.05006742849348968,359.3714289134348,349.6873398256944,322.0139181704159
2026-09-24 20:45:08.613948928,1.714134765625,-0.08379150390625,10.045404296874999,0.07882956826634545,0.05219795736555307,-0.05326322180158476,359.42339925397886,349.71956451810905,321.9821945740299
2026-09-24 20:45:08.629596160,1.69737646484375,-0.07421533203125,10.040616210937499,0.07350324608618697,0.04048004856920442,-0.05645901510967985,359.47255217254434,349.74578685300554,321.9487671009116
2026-09-24 20:45:08.629596160,1.7045585937499999,-0.0813974609375,10.011887695312499,0.07030745277809189,0.030892668644919165,-0.05858954398174324,359.519725007079,349.7662676060313,321.9141273554604
2026-09-24 20:45:08.676445952,1.6901943359374998,-0.04548681640625,10.040616210937499,0.06711165946999681,0.023435817592697295,-0.05752427954571154,359.565231867887,349.7818534487591,321.87926615410555
2026-09-24 20:45:08.676445952,1.6782241210937499,-0.00718212890625,10.03822216796875,0.06498113059793341,0.01597896654047543,-0.059654808417774936,359.609913577336,349.79335705634213,321.8437755838771
2026-09-24 20:45:08.676445952,1.7165288085937498,-0.059851074218749994,10.064556640625,0.06498113059793341,0.01384843766841204,-0.054328486237616457,359.65347926388654,349.8025719258867,321.81044418569184
2026-09-24 20:45:08.711454976,1.7045585937499999,-0.043092773437499995,10.0693447265625,0.0681769239060285,0.009587379924285258,-0.049002164057457984,359.6976438479283,349.8100943050484,321.78035057458146
2026-09-24 20:45:08.739096320,1.7045585937499999,-0.06463916015625,10.050192382812499,0.07350324608618697,0.007456851052221867,-0.043675841877299504,359.7439929318797,349.81629241903454,321.7533707766849
2026-09-24 20:45:08.754721280,1.6638598632812498,-0.08618554687499999,10.112437499999999,0.07989483270237714,0.0010652644360316954,-0.04048004856920442,359.79275145246675,349.81941353127576,321.72862320797816
2026-09-24 20:45:08.754721280,1.64470751953125,-0.0813974609375,10.102861328125,0.08735168375459901,-0.012783173232380343,-0.04048004856920442,359.84554038068546,349.815708200362,321.70459865141015
2026-09-24 20:45:08.754721280,1.7380751953124998,-0.067033203125,9.9975234375,0.09374327037078918,-0.02663161090079238,-0.04048004856920442,359.9032057767442,349.8036081020053,321.6802336344258
2026-09-24 20:45:08.754721280,1.78116796875,-0.01915234375,10.026251953125,0.10120012142301105,-0.03621899082507764,-0.04154531300523612,359.9645056997929,349.78427302836184,321.6558664372204
2026-09-24 20:45:08.754721280,1.8146845703124999,0.04548681640625,9.95921875,0.10333065029507445,-0.04154531300523612,-0.04261057744126781,0.028589981230040352,349.76044074605267,321.6304623758754
2026-09-24 20:45:08.754721280,1.8673535156249998,0.076609375,9.961612792968749,0.10546117916713783,-0.044741106313331204,-0.044741106313331204,0.09451628237264906,349.7351581491803,321.60371847436096
2026-09-24 20:45:08.754721280,1.96072119140625,0.06463916015625,9.99991748046875,0.10546117916713783,-0.044741106313331204,-0.04793689962142629,0.16107850451040728,349.70844334313347,321.5753295502091
2026-09-24 20:45:08.754721280,1.9870556640625,0.1149140625,9.956824707031249,0.10652644360316953,-0.035153726389045944,-0.04687163518539459,0.2285357082615407,349.68459185421153,321.5469269328178
2026-09-24 20:45:08.785970432,1.9846616210937498,0.181947265625,9.944854492187499,0.10546117916713783,-0.022370553156665602,-0.0458063707493629,0.29552792348651585,349.66784690864256,321.51910574498794
2026-09-24 20:45:08.785970432,1.9631152343749998,0.2154638671875,9.978371093749999,0.10120012142301105,-0.01597896654047543,-0.04687163518539459,0.36104630768812634,349.65573789459614,321.4915291054767
2026-09-24 20:45:08.848468224,1.9726914062499998,0.162794921875,9.956824707031249,0.09693906367888427,-0.011717908796348648,-0.04793689962142629,0.42471751928103013,349.6467665419164,321.4629522233853
2026-09-24 20:45:08.848468224,1.93438671875,0.17715917968749997,9.9161259765625,0.09374327037078918,-0.012783173232380343,-0.05006742849348968,0.4866812383509088,349.6378283469715,321.43355384973637
2026-09-24 20:45:08.864092416,1.943962890625,0.28728515624999995,9.995129394531249,0.08415589044650393,-0.01384843766841204,-0.05539375067364816,0.5441043689009748,349.6287674938768,321.4015696920926
2026-09-24 20:45:08.918204928,1.9032641601562499,0.24658642578124998,9.973583007812499,0.07243798165015528,-0.010652644360316953,-0.059654808417774936,0.5961995154097371,349.62108010802154,321.36609628225364
2026-09-24 20:45:08.927219712,1.9631152343749998,0.23461621093749999,10.066950683593749,0.05858954398174324,-0.010652644360316953,-0.06391586616190172,0.640817016394513,349.614004862641,321.3284920595114
2026-09-24 20:45:08.974108672,1.9272045898437498,0.25616259765625,10.057374511718749,0.044741106313331204,-0.008522115488253563,-0.0692421883420602,0.6781713787065785,349.6077471771338,321.2875262272367
2026-09-24 20:45:09.036606720,1.97029736328125,0.23940429687499998,9.9831591796875,0.03621899082507764,-0.005326322180158476,-0.07137271721412358,0.7099350385192629,349.6031924829044,321.2453373957722
2026-09-24 20:45:09.036606720,1.97029736328125,0.1963115234375,10.064556640625,0.02876213977285577,0.0,-0.07669903939428206,0.7373102327564012,349.6009642285221,321.2001417006488
2026-09-24 20:45:09.036606720,1.97029736328125,0.1484306640625,10.035828124999998,0.02663161090079238,0.005326322180158476,-0.07989483270237714,0.7624049298942789,349.60284306966935,321.1532218641411
2026-09-24 20:45:09.069648128,1.8769296874999999,0.15321875,10.007099609374999,0.023435817592697295,0.010652644360316953,-0.08096009713840883,0.7848549525330342,349.6083601215559,321.10578444765406
2026-09-24 20:45:09.069648128,1.91762841796875,0.124490234375,9.9831591796875,0.022370553156665602,0.010652644360316953,-0.08096009713840883,0.8065589570929127,349.61492443621364,321.0577819411043
2026-09-24 20:45:09.114913024,1.8912939453125,0.1292783203125,10.083708984374999,0.02024002428460221,0.010652644360316953,-0.07989483270237714,0.8270550380059497,349.621169942894,321.00983472123824
2026-09-24 20:45:09.114913024,1.91284033203125,0.13885449218749998,10.04779833984375,0.022370553156665602,0.014913702104443734,-0.07882956826634545,0.8483659149870206,349.6289036440095,320.96252614409053
2026-09-24 20:45:09.114913024,1.8721416015624999,0.162794921875,10.074132812499998,0.01810949541253882,0.021305288720633905,-0.07776430383031376,0.8680604866137429,349.640171965276,320.91679145984256
2026-09-24 20:45:09.114913024,1.8242607421875,0.13167236328124998,10.0597685546875,0.01597896654047543,0.019174759848570515,-0.07563377495825037,0.8858796792446465,349.6521885567633,320.87227369342924
2026-09-24 20:45:09.114913024,1.7332871093749997,0.10294384765624999,10.026251953125,0.01597896654047543,0.012783173232380343,-0.07030745277809189,0.902532979723259,349.6617422495134,320.83026882462383
2026-09-24 20:45:09.114913024,1.7596215820312497,0.1292783203125,9.985553222656248,0.012783173232380343,0.005326322180158476,-0.0681769239060285,0.917228258923604,349.6676212177206,320.7897830085395
2026-09-24 20:45:09.114913024,1.771591796875,0.12209619140624998,10.007099609374999,0.010652644360316953,0.0,-0.06498113059793341,0.9305543210463537,349.6700059116485,320.7507728106747
2026-09-24 20:45:09.114913024,1.8098964843749998,0.162794921875,10.00470556640625,0.009587379924285258,-0.004261057744126781,-0.06072007285380663,0.9430064300300762,349.6685378070414,320.7139073185117
2026-09-24 20:45:09.114913024,1.78116796875,0.0909736328125,10.007099609374999,0.007456851052221867,-0.006391586616190171,-0.05326322180158476,0.9541414585980201,349.66565382371766,320.68135097154453
2026-09-24 20:45:09.114913024,1.8673535156249998,0.11012597656249999,10.052586425781248,0.008522115488253563,-0.005326322180158476,-0.044741106313331204,0.9643165356256982,349.6622862229731,320.65316387743366
2026-09-24 20:45:09.114913024,1.838625,0.1149140625,10.033434082031249,0.01384843766841204,0.0,-0.030892668644919165,0.9749708561342619,349.66161733802176,320.63247891562776
2026-09-24 20:45:09.114913024,1.8242607421875,0.15321875,9.995129394531249,0.012783173232380343,0.004261057744126781,-0.019174759848570515,0.9844740313594516,349.66413176540635,320.6193110565761
2026-09-24 20:45:09.114913024,1.8122905273437497,0.13646044921875,10.019069824218748,0.01384843766841204,0.005326322180158476,-0.006391586616190171,0.9933612575782453,349.66760611130036,320.61322843374546
2026-09-24 20:45:09.114913024,1.7644096679687498,0.14124853515625,9.99991748046875,0.011717908796348648,0.004261057744126781,0.004261057744126781,0.9998067963490161,349.6706186472419,320.6142590030149
2026-09-24 20:45:09.114913024,1.7572275390624998,0.08857958984374999,10.0693447265625,0.009587379924285258,0.0021305288720633907,0.01597896654047543,1.0038173961200039,349.6728423439008,320.62215045851707
2026-09-24 20:45:09.114913024,1.7739858398437498,0.09815576171875,10.0597685546875,0.006391586616190171,-0.004261057744126781,0.021305288720633905,1.0054711131416243,349.6719860100656,320.6340902791685
2026-09-24 20:45:09.114913024,1.8266547851562498,0.021546386718749998,10.07173876953125,0.008522115488253563,-0.012783173232380343,0.024501082028728992,1.0069707798174954,349.6659912015982,320.6481293115938
2026-09-24 20:45:09.114913024,1.9008701171874998,0.07421533203125,10.045404296874999,0.009587379924285258,-0.01810949541253882,0.02769687533682408,1.0086600558774106,349.65525386729723,320.66403088819425
2026-09-24 20:45:09.130539008,1.96550927734375,0.05027490234375,10.122013671875,0.017044230976507126,-0.009587379924285258,0.029827404208887468,1.0145874608035492,349.6467930171807,320.6808369849518
2026-09-24 20:45:09.130539008,1.9487509765624997,0.05027490234375,10.00949365234375,0.022370553156665602,0.0,0.03302319751698255,1.0220342449284927,349.6439834566693,320.6993606533682
2026-09-24 20:45:09.130539008,1.97029736328125,0.09336767578124999,9.98076513671875,0.02769687533682408,0.01384843766841204,0.03728425526110934,1.032474702630178,349.64908463050887,320.7204959378605
2026-09-24 20:45:09.130539008,1.9248105468749999,0.08857958984374999,10.011887695312499,0.03302319751698255,0.023435817592697295,0.04154531300523612,1.045645073114233,349.6600640784316,320.7447953427022
2026-09-24 20:45:09.130539008,1.8984760742187499,0.08857958984374999,9.97118896484375,0.039414784133172724,0.02769687533682408,0.043675841877299504,1.061802832608407,349.6738700728052,320.770408842601
2026-09-24 20:45:09.146170368,1.8841118164062498,0.04548681640625,10.05498046875,0.043675841877299504,0.02876213977285577,0.04261057744126781,1.0803130343101812,349.6892959791192,320.7957701644896
2026-09-24 20:45:09.146170368,1.9032641601562499,0.076609375,10.00949365234375,0.04793689962142629,0.02876213977285577,0.03834951969714103,1.1018979317815616,349.70500815562843,320.8193313786687
2026-09-24 20:45:09.177419776,1.8841118164062498,0.08618554687499999,10.002311523437498,0.054328486237616457,0.02876213977285577,0.03302319751698255,1.1275606456259144,349.72056952750705,320.83976795619526
2026-09-24 20:45:09.177419776,1.8697475585937497,0.0813974609375,9.98076513671875,0.06178533728983833,0.03195793308095086,0.02769687533682408,1.1573284001313293,349.73752555064453,320.85775514992366
2026-09-24 20:45:09.177419776,1.8673535156249998,0.10533789062499999,9.98076513671875,0.06498113059793341,0.030892668644919165,0.023435817592697295,1.1902155611741805,349.7544262105594,320.87262232901315
2026-09-24 20:45:09.243651072,1.8362309570312498,0.1292783203125,10.040616210937499,0.0692421883420602,0.03302319751698255,0.017044230976507126,1.2262159021779702,349.772426760117,320.8841025365489
2026-09-24 20:45:09.271210240,1.829048828125,0.13646044921875,10.028645996093749,0.07456851052221868,0.03195793308095086,0.014913702104443734,1.2657629694769454,349.7905560074366,320.8939987021632
2026-09-24 20:45:09.271210240,1.8482011718749998,0.1963115234375,10.040616210937499,0.07350324608618697,0.03408846195301425,0.01597896654047543,1.305763298057443,349.80943945884997,320.9036010718366
2026-09-24 20:45:09.271210240,1.8266547851562498,0.2154638671875,10.007099609374999,0.07350324608618697,0.03728425526110934,0.017044230976507126,1.34618315417107,349.82986853891964,320.9134233748672
2026-09-24 20:45:09.271210240,1.7835620117187498,0.23222216796874998,10.00949365234375,0.07137271721412358,0.03834951969714103,0.01597896654047543,1.385507026652723,349.8514452917236,320.92331341640534
2026-09-24 20:45:09.271210240,1.74525732421875,0.22025195312499998,10.057374511718749,0.0660463950339651,0.03834951969714103,0.01597896654047543,1.4223910024706015,349.87349332081686,320.933170860256
2026-09-24 20:45:09.318090240,1.771591796875,0.24658642578124998,10.05498046875,0.0660463950339651,0.035153726389045944,0.014913702104443734,1.4581612559501418,349.89420960731854,320.94243084747825
2026-09-24 20:45:09.318090240,1.7787739257812498,0.21306982421874998,10.064556640625,0.06391586616190172,0.029827404208887468,0.010652644360316953,1.4937521013521007,349.91245370691985,320.9494708986307
2026-09-24 20:45:09.333715712,1.7332871093749997,0.16040087890625,10.07173876953125,0.0660463950339651,0.02769687533682408,0.008522115488253563,1.5298128175262697,349.92902102990865,320.95559802437145
2026-09-24 20:45:09.333715712,1.74525732421875,0.24658642578124998,10.033434082031249,0.06711165946999681,0.024501082028728992,0.006391586616190171,1.5667725058050974,349.9445958291162,320.96020393253235
2026-09-24 20:45:09.333715712,1.7524394531249998,0.28728515624999995,10.026251953125,0.0692421883420602,0.021305288720633905,0.004261057744126781,1.6054765597391063,349.9580171375318,320.9640158991258
2026-09-24 20:45:09.333715712,1.7356811523437499,0.29446728515625,10.050192382812499,0.07030745277809189,0.014913702104443734,0.0031957933080950856,1.6451662900253932,349.96783486133575,320.96617525752936
2026-09-24 20:45:09.339438848,1.7189228515625,0.34474218749999996,9.9927353515625,0.0681769239060285,0.010652644360316953,0.0,1.684636072382008,349.9754813572107,320.96700203641194
2026-09-24 20:45:09.339438848,1.75483349609375,0.30404345703124996,10.01667578125,0.06285060172587002,0.004261057744126781,0.0,1.7222117606585792,349.9795566311605,320.96673003562864
2026-09-24 20:45:09.341949696,1.7668037109374999,0.32798388671874995,10.0597685546875,0.054328486237616457,0.0021305288720633907,-0.0021305288720633907,1.7552160523963953,349.98182246599333,320.9652122401814
2026-09-24 20:45:09.342521344,1.7859560546874997,0.37347070312499997,10.08610302734375,0.04687163518539459,0.0021305288720633907,-0.0031957933080950856,1.7840741407168101,349.9835950605056,320.96305432204497
2026-09-24 20:45:09.343119360,1.8242607421875,0.33277197265624997,10.01428173828125,0.04048004856920442,0.004261057744126781,-0.005326322180158476,1.8093277124091955,349.9858665205865,320.9596076596907
2026-09-24 20:45:09.381018112,1.85538330078125,0.27770898437499997,10.057374511718749,0.03408846195301425,0.008522115488253563,-0.004261057744126781,1.83026679735669,349.98986043982296,320.9563424046631
2026-09-24 20:45:09.381018112,1.8745356445312498,0.28967919921874996,10.04779833984375,0.03302319751698255,0.01384843766841204,-0.0031957933080950856,1.8495852960126882,349.99656363062235,320.9541363113433
2026-09-24 20:45:09.396644608,1.8242607421875,0.26334472656249996,9.978371093749999,0.035153726389045944,0.017044230976507126,-0.0021305288720633907,1.8689366215127328,350.00469683744086,320.95239184236067
2026-09-24 20:45:09.459269376,1.8218666992187498,0.2537685546875,10.01667578125,0.04048004856920442,0.021305288720633905,0.0021305288720633907,1.8905682300314264,350.0160217363087,320.95322311342306
2026-09-24 20:45:09.459269376,1.80271435546875,0.229828125,10.03822216796875,0.05006742849348968,0.021305288720633905,0.005326322180158476,1.9165193686007407,350.02820854249677,320.95628916262825
2026-09-24 20:45:09.459269376,1.7739858398437498,0.31361962890624995,10.007099609374999,0.05645901510967985,0.022370553156665602,0.011717908796348648,1.945970701451328,350.0406736776866,320.9628094697845
2026-09-24 20:45:09.490995200,1.7739858398437498,0.33756005859375,10.040616210937499,0.059654808417774936,0.021305288720633905,0.01597896654047543,1.9781018695224108,350.0527717886684,320.9719886069458
2026-09-24 20:45:09.490995200,1.7955322265624998,0.4165634765625,10.023857910156249,0.05752427954571154,0.02024002428460221,0.01810949541253882,2.0098392870832456,350.0636179673786,320.98228674015894
2026-09-24 20:45:09.490995200,1.771591796875,0.42374560546874995,9.9975234375,0.04687163518539459,0.017044230976507126,0.022370553156665602,2.0371846661862856,350.0732693329736,320.99523009372643
2026-09-24 20:45:09.490995200,1.7668037109374999,0.42613964843749996,9.985553222656248,0.03728425526110934,0.014913702104443734,0.024501082028728992,2.0583841971072623,350.0817645323354,321.00934370538596
2026-09-24 20:45:09.538264832,1.7284990234375,0.40698730468749994,10.03822216796875,0.029827404208887468,0.01384843766841204,0.02663161090079238,2.0745481469310074,350.08948716346066,321.0247191463054
2026-09-24 20:45:09.538264832,1.8098964843749998,0.39980517578124997,10.002311523437498,0.022370553156665602,0.011717908796348648,0.030892668644919165,2.085768650151442,350.09552797425494,321.04249754405316
2026-09-24 20:45:09.538264832,1.79792626953125,0.335166015625,10.01428173828125,0.02024002428460221,0.011717908796348648,0.03621899082507764,2.094575247655418,350.10113786790157,321.0628330551598
2026-09-24 20:45:09.538264832,1.7859560546874997,0.36628857421875,10.083708984374999,0.022370553156665602,0.01384843766841204,0.04154531300523612,2.1029397677079262,350.1077460510693,321.08699981372456
2026-09-24 20:45:09.538264832,1.7596215820312497,0.38065283203124994,9.985553222656248,0.024501082028728992,0.01384843766841204,0.044741106313331204,2.112165870145308,350.1146007097108,321.11303178019074
2026-09-24 20:45:09.538264832,1.7955322265624998,0.40698730468749994,10.026251953125,0.022370553156665602,0.012783173232380343,0.04793689962142629,2.1203038429090553,350.1210791083808,321.1408858895931
2026-09-24 20:45:09.554287616,1.7931381835937499,0.36150048828125,9.9831591796875,0.02024002428460221,0.012783173232380343,0.04687163518539459,2.127613079444436,350.12738927732113,321.1686847407129
2026-09-24 20:45:09.554287616,1.7380751953124998,0.39022900390625,10.04779833984375,0.01384843766841204,0.010652644360316953,0.04261057744126781,2.13220230666408,350.1328406986843,321.19463241213646
2026-09-24 20:45:09.554287616,1.7955322265624998,0.3782587890625,10.052586425781248,0.008522115488253563,0.005326322180158476,0.03834951969714103,2.134037840297849,350.1362169470874,321.2179839481877
2026-09-24 20:45:09.554287616,1.8194726562499999,0.39501708984374995,9.97118896484375,0.0021305288720633907,0.0031957933080950856,0.03408846195301425,2.132741607160774,350.13671044407295,321.2384510128282
2026-09-24 20:45:09.554287616,1.86495947265625,0.44289794921875,10.01428173828125,0.0,0.005326322180158476,0.03195793308095086,2.1295216785360873,350.13834824752854,321.25738304372675
2026-09-24 20:45:09.601184512,1.85538330078125,0.3878349609375,9.985553222656248,-0.0021305288720633907,0.010652644360316953,0.030892668644919165,2.125406826395336,350.14260387964674,321.2754583078684
2026-09-24 20:45:09.601184512,1.85538330078125,0.45247412109374996,10.01428173828125,-0.007456851052221867,0.01597896654047543,0.02876213977285577,2.118589241616279,350.1503015725488,321.29244591760875
2026-09-24 20:45:09.695308288,1.8218666992187498,0.39501708984374995,10.002311523437498,-0.010652644360316953,0.019174759848570515,0.02769687533682408,2.1094179852203205,350.1601005939597,321.30949527757207
2026-09-24 20:45:09.757803776,1.8003203124999998,0.4165634765625,10.00949365234375,-0.017044230976507126,0.01597896654047543,0.025566346464760685,2.096948276306598,350.16931721205145,321.3249971782336
2026-09-24 20:45:09.757803776,1.80750244140625,0.43571582031249995,10.0693447265625,-0.022370553156665602,0.01597896654047543,0.021305288720633905,2.0822941800666968,350.17890627675166,321.3382973177411
2026-09-24 20:45:09.757803776,1.7596215820312497,0.41416943359374997,9.995129394531249,-0.02876213977285577,0.017044230976507126,0.01810949541253882,2.06453618097378,350.1882034744634,321.35003808788724
2026-09-24 20:45:09.757803776,1.7524394531249998,0.4165634765625,10.01428173828125,-0.03621899082507764,0.014913702104443734,0.01384843766841204,2.0432464253576152,350.1973088554103,321.3589750587778
2026-09-24 20:45:09.820350976,1.78116796875,0.39022900390625,9.987947265625,-0.04261057744126781,0.01384843766841204,0.008522115488253563,2.0181692066669594,350.2060570693741,321.36540032088857
2026-09-24 20:45:09.820350976,1.7644096679687498,0.40938134765624995,10.033434082031249,-0.04687163518539459,0.01384843766841204,0.004261057744126781,1.9907509493698627,350.2143537706173,321.3690371999958
2026-09-24 20:45:09.820350976,1.7596215820312497,0.40459326171875,9.995129394531249,-0.04793689962142629,0.014913702104443734,0.004261057744126781,1.9624565648538963,350.2230973389689,321.37171993831413
2026-09-24 20:45:09.820350976,1.7668037109374999,0.38544091796874996,10.023857910156249,-0.04793689962142629,0.019174759848570515,0.0021305288720633907,1.9341434158389232,350.2336646874551,321.3738616341073
2026-09-24 20:45:09.820350976,1.6854062499999998,0.392623046875,9.990341308593749,-0.054328486237616457,0.02024002428460221,0.004261057744126781,1.903065095028718,350.24575215065096,321.37634202045354
2026-09-24 20:45:09.820350976,1.6782241210937499,0.41895751953125,9.987947265625,-0.06072007285380663,0.017044230976507126,0.0031957933080950856,1.8686117643915756,350.2577235040335,321.3784467199614
2026-09-24 20:45:09.820350976,1.6542836914062498,0.38544091796874996,10.04301025390625,-0.06178533728983833,0.011717908796348648,0.004261057744126781,1.8326550777156927,350.26649138584014,321.3810349864088
2026-09-24 20:45:09.820350976,1.66625390625,0.33756005859375,9.95921875,-0.06285060172587002,0.008522115488253563,0.0021305288720633907,1.79593679872687,350.2736047500372,321.38238423870814
2026-09-24 20:45:09.820350976,1.6064028320312498,0.34474218749999996,9.930490234374998,-0.06498113059793341,-0.0010652644360316954,0.0,1.7594158766929238,350.275899224203,321.38234453078593
2026-09-24 20:45:09.835999488,1.64470751953125,0.32558984375,10.028645996093749,-0.0681769239060285,-0.01597896654047543,-0.0031957933080950856,1.7208790276238486,350.2701085195039,321.38022373555503
2026-09-24 20:45:09.835999488,1.70216455078125,0.43332177734374994,9.9544306640625,-0.06498113059793341,-0.021305288720633905,-0.006391586616190171,1.6838359778264198,350.2597354581822,321.3757282056631
2026-09-24 20:45:09.835999488,1.6782241210937499,0.38304687499999995,9.98076513671875,-0.08309062601047223,-0.02876213977285577,-0.006391586616190171,1.6426740141264284,350.24517135969126,321.37070523912814
2026-09-24 20:45:09.835999488,1.7165288085937498,0.35192431640625,10.026251953125,-0.11078750134729631,-0.03728425526110934,-0.009587379924285258,1.5837539983350513,350.2253515385193,321.3634560891837
2026-09-24 20:45:09.835999488,1.7380751953124998,0.36868261718749995,10.0310400390625,-0.10759170803920122,-0.039414784133172724,-0.010652644360316953,1.5227980613112682,350.20295661617007,321.3558962757738
2026-09-24 20:45:09.835999488,1.7356811523437499,0.33995410156249994,10.062162597656249,-0.12250541014364495,-0.04261057744126781,-0.011717908796348648,1.4583815561616003,350.17962076429393,321.3476488113648
2026-09-24 20:45:09.835999488,1.79792626953125,0.26573876953125,10.112437499999999,-0.1352885833760253,-0.04793689962142629,-0.011717908796348648,1.3837742774605744,350.1536868710883,321.3390819127366
2026-09-24 20:45:09.835999488,1.7763798828125,0.18673535156249998,10.141166015624998,-0.12783173232380343,-0.049002164057457984,-0.01384843766841204,1.3099951802252225,350.1258319676523,321.33008301260895
2026-09-24 20:45:09.835999488,1.8458071289062499,0.1292783203125,10.07173876953125,-0.12357067457967666,-0.04793689962142629,-0.01384843766841204,1.2389502253263414,350.098459839053,321.3209311498819
2026-09-24 20:45:09.835999488,1.8888999023437498,0.17476513671875,10.05498046875,-0.10972223691126462,-0.03728425526110934,-0.012783173232380343,1.1742515494741694,350.07390635859264,321.3122048253225
2026-09-24 20:45:09.835999488,1.8841118164062498,0.15800683593749998,10.01428173828125,-0.09800432811491597,-0.021305288720633905,-0.009587379924285258,1.1170354953861366,350.0588072265634,321.30551818437317
2026-09-24 20:45:09.835999488,1.8697475585937497,0.05266894531249999,10.045404296874999,-0.09267800593475749,-0.012783173232380343,-0.0031957933080950856,1.0630631146943692,350.0491235598227,321.30142443491656
2026-09-24 20:45:09.851613440,1.86495947265625,0.0909736328125,10.011887695312499,-0.08841694819063071,-0.004261057744126781,0.0,1.0105677968195776,350.0447433529323,321.3003024551689
2026-09-24 20:45:09.851613440,1.8362309570312498,0.0383046875,10.007099609374999,-0.07989483270237714,0.0,0.005326322180158476,0.9613790504226665,350.044384490579,321.30297138087246
2026-09-24 20:45:09.977222912,1.829048828125,0.0383046875,9.961612792968749,-0.07243798165015528,0.0,0.010652644360316953,0.9151421260098364,350.0442099257936,321.3088207150644
2026-09-24 20:45:10.039719168,1.7859560546874997,0.023940429687499997,9.906549804687499,-0.06391586616190172,0.0031957933080950856,0.012783173232380343,0.873887217618449,350.0456191724836,321.3162313986363
2026-09-24 20:45:10.039719168,1.7404692382812499,0.026334472656249996,9.956824707031249,-0.05858954398174324,-0.0031957933080950856,0.011717908796348648,0.8363123334639032,350.0454786531726,321.3239069294444
2026-09-24 20:45:10.039719168,1.7907441406249998,0.009576171875,9.9975234375,-0.04793689962142629,-0.01384843766841204,0.009587379924285258,0.8041271336572272,350.03958509470266,321.3299060296454
2026-09-24 20:45:10.039719168,1.8912939453125,-0.026334472656249996,10.0980732421875,-0.03302319751698255,-0.01810949541253882,0.010652644360316953,0.7800102273915284,350.0297731870053,321.3356443982105
2026-09-24 20:45:10.102217984,1.8745356445312498,0.00239404296875,10.083708984374999,-0.019174759848570515,-0.012783173232380343,0.01384843766841204,0.7638669814621507,350.0208205216483,321.3429553143678
2026-09-24 20:45:10.102217984,1.9152343749999998,0.043092773437499995,10.078920898437499,-0.010652644360316953,0.0,0.023435817592697295,0.7530320711856755,350.01810912774494,321.3552492015151
2026-09-24 20:45:10.102217984,1.829048828125,0.10294384765624999,10.078920898437499,-0.005326322180158476,0.006391586616190171,0.03408846195301425,0.7449854627208025,350.02043678229273,321.3737192510192
2026-09-24 20:45:10.102217984,1.8146845703124999,0.059851074218749994,10.074132812499998,-0.004261057744126781,0.012783173232380343,0.04793689962142629,0.7359322552877754,350.02638769857265,321.39931414725464
2026-09-24 20:45:10.102217984,1.7668037109374999,-0.00718212890625,10.0980732421875,-0.004261057744126781,0.011717908796348648,0.059654808417774936,0.7254027315024892,350.03320568539425,321.4327376903097
2026-09-24 20:45:10.102217984,1.838625,0.023940429687499997,10.057374511718749,0.0,0.009587379924285258,0.07030745277809189,0.7161553360159545,350.03838703791877,321.4724015404437
2026-09-24 20:45:10.102217984,1.8936879882812498,0.09576171874999999,10.107649414062498,0.005326322180158476,0.010652644360316953,0.08096009713840883,0.7097212153279319,350.04311502907996,321.5185266876785
2026-09-24 20:45:10.102217984,1.9295986328124999,0.10294384765624999,10.0980732421875,0.006391586616190171,0.017044230976507126,0.08522115488253562,0.7042544840637609,350.049663334777,321.56827873323596
2026-09-24 20:45:10.102217984,2.0253603515624996,0.059851074218749994,9.973583007812499,0.007456851052221867,0.03408846195301425,0.08522115488253562,0.6990442458817789,350.0644591571006,321.61874616343164
2026-09-24 20:45:10.102217984,1.9679033203124998,0.11252001953124999,10.002311523437498,0.010652644360316953,0.049002164057457984,0.07669903939428206,0.6960870570940424,350.0877865252543,321.66534153038543
2026-09-24 20:45:10.102217984,1.9152343749999998,0.1005498046875,9.98076513671875,0.012783173232380343,0.05645901510967985,0.06285060172587002,0.6954481732110401,350.1167846685593,321.7045421208566
2026-09-24 20:45:10.102217984,1.8434130859374998,0.13646044921875,9.956824707031249,0.01597896654047543,0.05645901510967985,0.0458063707493629,0.6988549446526837,350.1475117343747,321.73440759879077
2026-09-24 20:45:10.102217984,1.8242607421875,0.16040087890625,10.0214638671875,0.006391586616190171,0.05006742849348968,0.03302319751698255,0.7004944430369799,350.17600784584465,321.75610055712855
2026-09-24 20:45:10.102217984,1.8577773437499998,0.21785791015624997,10.00470556640625,-0.0021305288720633907,0.04261057744126781,0.023435817592697295,0.6974286100433427,350.2007735813135,321.7711928185244
2026-09-24 20:45:10.102217984,1.8266547851562498,0.18673535156249998,10.00470556640625,-0.014913702104443734,0.043675841877299504,0.02024002428460221,0.6890500614592856,350.2251288617147,321.7836873035607
2026-09-24 20:45:10.102217984,1.8338369140625,0.17715917968749997,10.023857910156249,-0.029827404208887468,0.049002164057457984,0.01810949541253882,0.6717583737464528,350.2522966744301,321.79471583126065
2026-09-24 20:45:10.102217984,1.7691977539062498,0.12688427734375,10.002311523437498,-0.04154531300523612,0.05219795736555307,0.01810949541253882,0.6472484679135074,350.2813478693866,321.80518744538733
2026-09-24 20:45:10.102217984,1.7835620117187498,0.076609375,9.99991748046875,-0.04793689962142629,0.05539375067364816,0.014913702104443734,0.6177678212043444,350.31210118800294,321.8145251040066
2026-09-24 20:45:10.102217984,1.7213168945312498,0.01675830078125,10.007099609374999,-0.04793689962142629,0.059654808417774936,0.007456851052221867,0.5872785268194286,350.34605895362824,321.8208822357549
2026-09-24 20:45:10.102217984,1.7045585937499999,-0.00239404296875,10.04779833984375,-0.043675841877299504,0.06178533728983833,0.0010652644360316954,0.5585534518507971,350.3817245989528,321.82298440191704
2026-09-24 20:45:10.117844224,1.6949824218749998,-0.011970214843749999,10.062162597656249,-0.03302319751698255,0.06285060172587002,-0.0021305288720633907,0.5360515054680999,350.41837997983527,321.82229984049246
2026-09-24 20:45:10.117844224,1.6518896484374999,0.06942724609374999,10.026251953125,-0.029827404208887468,0.06072007285380663,-0.008522115488253563,0.5173562886461657,350.45498285932996,321.81785965582174
2026-09-24 20:45:10.180367104,1.6135849609375,0.08379150390625,10.07173876953125,-0.03408846195301425,0.05326322180158476,-0.01810949541253882,0.49857551816374435,350.4878526356214,321.80826813394805
2026-09-24 20:45:10.180367104,1.6255551757812499,0.00239404296875,10.074132812499998,-0.035153726389045944,0.043675841877299504,-0.02876213977285577,0.4802422083838213,350.5154336772662,321.7924760590401
2026-09-24 20:45:10.276908032,1.6614658203125,0.0,10.083708984374999,-0.04261057744126781,0.03302319751698255,-0.03834951969714103,0.4586390458169635,350.53729921685647,321.77179996304625
2026-09-24 20:45:10.276908032,1.6782241210937499,-0.05745703125,10.050192382812499,-0.02876213977285577,0.02876213977285577,-0.05113269292952137,0.441747179669435,350.555987811858,321.7432940336224
2026-09-24 20:45:10.276908032,1.714134765625,-0.055062988281249996,10.035828124999998,-0.023435817592697295,0.02024002428460221,-0.06391586616190172,0.43108449752860867,350.56984930572366,321.7077549167105
2026-09-24 20:45:10.338294528,1.7308930664062498,-0.0335166015625,10.0693447265625,-0.010652644360316953,0.01384843766841204,-0.07456851052221868,0.42703638553668305,350.5796662828959,321.6656786574576
2026-09-24 20:45:10.338294528,1.8218666992187498,-0.028728515625,10.15313623046875,0.005326322180158476,0.01597896654047543,-0.08202536157444054,0.4341591134132751,350.5884658157422,321.61895197942295
2026-09-24 20:45:10.416789760,1.7668037109374999,0.0813974609375,10.100467285156249,0.005326322180158476,0.023435817592697295,-0.08628641931856731,0.44504421439274633,350.600276040817,321.5691278600708
2026-09-24 20:45:10.416789760,1.7644096679687498,0.16518896484374998,10.0597685546875,0.0,0.02769687533682408,-0.08841694819063071,0.4538773722597839,350.61617205844595,321.5172646260954
2026-09-24 20:45:10.416789760,1.7739858398437498,0.15321875,10.0597685546875,-0.011717908796348648,0.025566346464760685,-0.09374327037078918,0.4579157027912213,350.63154177704575,321.46282642513455
2026-09-24 20:45:10.416789760,1.7596215820312497,0.0909736328125,10.14834814453125,-0.023435817592697295,0.03195793308095086,-0.09267800593475749,0.45440722559394653,350.6486210235959,321.4084415415837
2026-09-24 20:45:10.416789760,1.7787739257812498,0.0047880859375,10.08131494140625,-0.02876213977285577,0.030892668644919165,-0.09693906367888427,0.44622687554296725,350.66670481381107,321.3520166434632
2026-09-24 20:45:10.416789760,1.75483349609375,-0.07421533203125,10.083708984374999,-0.022370553156665602,0.035153726389045944,-0.10013485698697935,0.43958834939179126,350.6860475770246,321.29419148941855
2026-09-24 20:45:10.416789760,1.79792626953125,-0.10533789062499999,10.074132812499998,-0.014913702104443734,0.03621899082507764,-0.10333065029507445,0.43746207949954374,350.70647241919306,321.234325679792
2026-09-24 20:45:10.416789760,1.838625,-0.035910644531249994,10.062162597656249,-0.007456851052221867,0.04048004856920442,-0.10652644360316953,0.4389226070025868,350.7282387017664,321.1723745132504
2026-09-24 20:45:10.416789760,1.7907441406249998,0.09815576171875,9.96640087890625,0.0,0.04687163518539459,-0.10865697247523291,0.44569605228044756,350.75316561968003,321.1093809321331
2026-09-24 20:45:10.416789760,1.80750244140625,0.10294384765624999,9.97597705078125,0.0,0.05219795736555307,-0.10546117916713783,0.4564699667766361,350.78226017950124,321.047124349026
2026-09-24 20:45:10.416789760,1.8266547851562498,0.03112255859375,9.95921875,-0.017044230976507126,0.06072007285380663,-0.10546117916713783,0.457427673865078,350.8148116612547,320.98555947459266
2026-09-24 20:45:10.416789760,1.8098964843749998,-0.0143642578125,10.01667578125,-0.01384843766841204,0.07137271721412358,-0.10439591473110614,0.4570181089211781,350.85312577818524,320.924513360881
2026-09-24 20:45:10.416789760,1.7691977539062498,-0.07421533203125,10.0214638671875,-0.008522115488253563,0.08202536157444054,-0.10226538585904274,0.45851203553443426,350.89806850326727,320.86545664397175
2026-09-24 20:45:10.416789760,1.6949824218749998,-0.023940429687499997,10.019069824218748,0.0,0.08628641931856731,-0.10226538585904274,0.46460165976405465,350.9468066669416,320.8058710406925
2026-09-24 20:45:10.416789760,1.7404692382812499,-0.0622451171875,10.035828124999998,0.014913702104443734,0.09267800593475749,-0.10013485698697935,0.47894670081543045,350.9983878943499,320.7475157151997
2026-09-24 20:45:10.432414464,1.6686479492187498,-0.028728515625,10.062162597656249,0.025566346464760685,0.09800432811491597,-0.09480853480682087,0.4992165688551901,351.053123897139,320.6917402485133
2026-09-24 20:45:10.432414464,1.66625390625,0.009576171875,10.050192382812499,0.03728425526110934,0.10652644360316953,-0.08735168375459901,0.5257380259115835,351.11298627858406,320.6399698095156
2026-09-24 20:45:10.432414464,1.6016147460937498,0.026334472656249996,9.97597705078125,0.04261057744126781,0.10972223691126462,-0.07882956826634545,0.5559644821910582,351.1757966773553,320.59316531005567
2026-09-24 20:45:10.432414464,1.6207670898437498,0.0622451171875,9.98076513671875,0.043675841877299504,0.11078750134729631,-0.07030745277809189,0.5874634282023747,351.23969412397594,320.5506637325094
2026-09-24 20:45:10.432414464,1.5273994140624998,0.12209619140624998,10.033434082031249,0.03408846195301425,0.10120012142301105,-0.0660463950339651,0.6140778976711608,351.2995834718097,320.5118156966116
2026-09-24 20:45:10.432414464,1.5585219726562498,0.11012597656249999,9.97597705078125,0.029827404208887468,0.0905474770626941,-0.06391586616190172,0.637782715145768,351.3534811249539,320.4747125935464
2026-09-24 20:45:10.432414464,1.4531840820312498,0.14364257812499998,10.04779833984375,0.01810949541253882,0.08628641931856731,-0.06072007285380663,0.6559085915446073,351.4036310441314,320.43886101055205
2026-09-24 20:45:10.432414464,1.51303515625,0.18434130859374998,10.102861328125,0.007456851052221867,0.07989483270237714,-0.05858954398174324,0.6667403569713218,351.45175086008607,320.4041896496287
2026-09-24 20:45:10.432414464,1.48191259765625,0.12688427734375,10.095679199218749,0.0031957933080950856,0.07669903939428206,-0.05858954398174324,0.6746231390395157,351.4970394321187,320.37008609085876
2026-09-24 20:45:10.432414464,1.53936962890625,0.162794921875,10.1268017578125,0.0,0.07030745277809189,-0.05539375067364816,0.6801106511817985,351.5388622329841,320.337281137896
2026-09-24 20:45:10.494920704,1.5657041015625,0.17955322265624998,10.19144091796875,-0.0010652644360316954,0.07243798165015528,-0.04687163518539459,0.6832282744044269,351.58072872158664,320.3084444736921
2026-09-24 20:45:10.494920704,1.48191259765625,0.21306982421874998,10.066950683593749,-0.0031957933080950856,0.07669903939428206,-0.03728425526110934,0.684484231278835,351.624938215729,320.28512482977425
2026-09-24 20:45:10.494920704,1.4675483398437499,0.24658642578124998,10.07652685546875,-0.010652644360316953,0.07882956826634545,-0.02663161090079238,0.682181943737252,351.67191427332796,320.26764069746054
2026-09-24 20:45:10.494920704,1.48670068359375,0.23701025390624997,10.07173876953125,-0.022370553156665602,0.07350324608618697,-0.01597896654047543,0.672735769578213,351.71584776089674,320.256866286223
2026-09-24 20:45:10.619908608,1.465154296875,0.25616259765625,10.057374511718749,-0.035153726389045944,0.06711165946999681,-0.009587379924285258,0.6554588695906337,351.7562644219093,320.25004293016224
2026-09-24 20:45:10.619908608,1.5082470703125,0.23222216796874998,10.13158984375,-0.04687163518539459,0.06072007285380663,-0.006391586616190171,0.6311909567981607,351.79243351639417,320.24531570243494
2026-09-24 20:45:10.619908608,1.5226113281249998,0.15800683593749998,10.205805175781249,-0.054328486237616457,0.05858954398174324,-0.004261057744126781,0.6008647077830732,351.8270449073111,320.24245186325805
2026-09-24 20:45:10.619908608,1.51303515625,0.13885449218749998,10.095679199218749,-0.05539375067364816,0.05858954398174324,-0.0010652644360316954,0.5684404330468436,351.8603219368374,320.24089000161797
2026-09-24 20:45:10.682904320,1.5752802734374998,0.11012597656249999,10.102861328125,-0.054328486237616457,0.06391586616190172,0.0010652644360316954,0.5364182698082061,351.89609630723123,320.24122081294587
2026-09-24 20:45:10.682904320,1.5489458007812498,0.15321875,10.026251953125,-0.05113269292952137,0.07137271721412358,0.005326322180158476,0.5057322785744124,351.9359422401839,320.24401680838713
2026-09-24 20:45:10.682904320,1.48191259765625,0.10773193359375,10.0693447265625,-0.04687163518539459,0.07989483270237714,0.011717908796348648,0.4765699005782054,351.98052385213754,320.25019731703156
2026-09-24 20:45:10.682904320,1.4890947265624999,0.07182128906249999,10.09328515625,-0.04261057744126781,0.08415589044650393,0.01810949541253882,0.4494040894024052,352.02847639948845,320.26011122887695
2026-09-24 20:45:10.682904320,1.4316376953124998,0.09576171874999999,10.026251953125,-0.039414784133172724,0.08841694819063071,0.022370553156665602,0.423652404320457,352.0787733698606,320.27283910299275
2026-09-24 20:45:10.761212928,1.4100913085937499,0.0813974609375,10.062162597656249,-0.03834951969714103,0.08841694819063071,0.025566346464760685,0.39881340736021564,352.12946251574135,320.28766323299
2026-09-24 20:45:10.776839680,1.4412138671874999,0.07900341796874999,10.05498046875,-0.03834951969714103,0.08841694819063071,0.029827404208887468,0.373705581018599,352.1803519421014,320.3043179307655
2026-09-24 20:45:10.779095808,1.4268496093749998,0.0335166015625,10.107649414062498,-0.03621899082507764,0.08735168375459901,0.02769687533682408,0.34933976445984666,352.23079483284806,320.3209704923968
2026-09-24 20:45:10.779095808,1.4986708984375,0.0383046875,10.064556640625,-0.029827404208887468,0.0916127414987258,0.025566346464760685,0.3278535634231839,352.2821954808544,320.3363822588881
2026-09-24 20:45:10.780299520,1.4627602539062499,0.0143642578125,10.09328515625,-0.025566346464760685,0.10013485698697935,0.02663161090079238,0.3091123317638918,352.3381139366188,320.3524489042731
2026-09-24 20:45:10.780299520,1.4436079101562498,0.0383046875,10.141166015624998,-0.022370553156665602,0.10226538585904274,0.02663161090079238,0.29162136996305194,352.39611583400733,320.3675969825889
2026-09-24 20:45:10.780299520,1.39812109375,0.026334472656249996,10.07652685546875,-0.01810949541253882,0.10546117916713783,0.02876213977285577,0.2771487701296658,352.45613939545814,320.3842139028853
2026-09-24 20:45:10.780299520,1.4100913085937499,0.055062988281249996,10.112437499999999,-0.02024002428460221,0.10013485698697935,0.02769687533682408,0.2623917832778146,352.5145945081815,320.40084458124915
2026-09-24 20:45:10.780299520,1.4483959960937498,0.0047880859375,10.112437499999999,-0.019174759848570515,0.09800432811491597,0.02663161090079238,0.24830760604490296,352.5706035946418,320.4167978211391
2026-09-24 20:45:10.780299520,1.48191259765625,-0.0383046875,10.066950683593749,-0.012783173232380343,0.09906959255094766,0.025566346464760685,0.23703643079328793,352.6265005453476,320.4325073386012
2026-09-24 20:45:10.780299520,1.47712451171875,-0.021546386718749998,10.078920898437499,-0.007456851052221867,0.10439591473110614,0.02769687533682408,0.22815353061288926,352.68405278375906,320.44852526271893
2026-09-24 20:45:10.792813312,1.5178232421875,-0.05266894531249999,10.050192382812499,-0.0021305288720633907,0.11078750134729631,0.02769687533682408,0.22211377881734223,352.7451212128902,320.4648772343901
2026-09-24 20:45:10.808453120,1.5728862304687499,-0.055062988281249996,10.064556640625,0.0021305288720633907,0.11611382352745478,0.029827404208887468,0.22001858446058623,352.80866310972846,320.4821851964419
2026-09-24 20:45:10.808453120,1.7380751953124998,-0.023940429687499997,10.0884970703125,0.004261057744126781,0.11504855909142309,0.024501082028728992,0.219383558566312,352.8711698697311,320.4976438667483
2026-09-24 20:45:10.808453120,1.8817177734375,-0.05745703125,10.0597685546875,0.008522115488253563,0.12357067457967666,0.023435817592697295,0.22110589511366907,352.93464860369164,320.51187480222467
2026-09-24 20:45:10.808453120,2.0445126953124997,-0.11730810546874999,10.057374511718749,0.011717908796348648,0.15126754991650074,0.024501082028728992,0.22499678862425385,353.00929423305706,320.5264939613819
2026-09-24 20:45:10.808453120,2.0708471679687497,-0.11012597656249999,10.023857910156249,0.01384843766841204,0.19494339179380024,0.029827404208887468,0.2291055293457392,353.1052110011469,320.54310934598425
2026-09-24 20:45:10.808453120,2.02296630859375,-0.09576171874999999,9.995129394531249,0.01597896654047543,0.23968449810713144,0.035153726389045944,0.23394878357877472,353.22683054478887,320.5632246894108
2026-09-24 20:45:10.808453120,1.8817177734375,-0.05027490234375,10.023857910156249,0.014913702104443734,0.28336033998443094,0.043675841877299504,0.23820303307745322,353.3741723830413,320.588030695067
2026-09-24 20:45:10.870948864,1.7931381835937499,-0.059851074218749994,10.023857910156249,0.011717908796348648,0.3185140663734769,0.05113269292952137,0.24102717840123372,353.5446320367861,320.6174686162006
2026-09-24 20:45:10.870948864,1.6614658203125,-0.05027490234375,9.9927353515625,0.005326322180158476,0.34514567727426926,0.05858954398174324,0.24027719179485915,353.7312424577438,320.6509730792766
2026-09-24 20:45:10.870948864,1.5010649414062498,-0.0622451171875,10.045404296874999,-0.0010652644360316954,0.36858149486696656,0.06391586616190172,0.23548395310780929,353.93430343606957,320.68787317452694
2026-09-24 20:45:10.870948864,1.3382700195312498,-0.055062988281249996,10.14834814453125,-0.007456851052221867,0.3824299325353786,0.0681769239060285,0.2257896809503718,354.14835953924836,320.7272422280291
2026-09-24 20:45:10.964977152,1.1850512695312498,-0.07900341796874999,10.122013671875,-0.009587379924285258,0.3898867835876005,0.07137271721412358,0.21416675402659502,354.3682465821722,320.76868701697504
2026-09-24 20:45:10.964977152,1.0581669921874999,-0.09336767578124999,10.129195800781249,-0.007456851052221867,0.39627837020379064,0.07563377495825037,0.20337985651957916,354.5934586259974,320.812869939226
2026-09-24 20:45:10.964977152,0.9360708007812499,-0.07421533203125,10.095679199218749,-0.006391586616190171,0.39627837020379064,0.08309062601047223,0.1929444647515141,354.82051049462507,320.8606804194243
2026-09-24 20:45:10.964977152,0.8379150390625,-0.0383046875,10.157924316406248,0.0,0.39947416351188575,0.08948221262666241,0.18575545951134537,355.0490357687252,320.9123853579565
2026-09-24 20:45:10.964977152,0.7086367187499999,0.03112255859375,10.150742187499999,0.0,0.39627837020379064,0.09480853480682087,0.18051974732140402,355.2771013217075,320.96708874285775
2026-09-24 20:45:10.964977152,0.61526904296875,0.059851074218749994,10.162712402343749,0.0,0.3866909902795054,0.09800432811491597,0.17572601164293827,355.50210130124395,321.02380030227783
2026-09-24 20:45:11.011851264,0.5482358398437499,0.021546386718749998,10.18186474609375,0.0,0.37284255261109334,0.10013485698697935,0.17092467552204815,355.7204549029045,321.08166577387044
2026-09-24 20:45:11.011851264,0.46444433593749995,0.04069873046875,10.2034111328125,-0.005326322180158476,0.3515372638904594,0.09693906367888427,0.1638280780671337,355.9284677506818,321.1382740810949
2026-09-24 20:45:11.011851264,0.43810986328124996,-0.01915234375,10.19144091796875,-0.004261057744126781,0.32703618186173045,0.0916127414987258,0.15644098574908188,356.1231124074511,321.1923361951774
2026-09-24 20:45:11.027478016,0.392623046875,-0.047880859374999994,10.239321777343749,0.0,0.30360036426903314,0.08628641931856731,0.15183307722932413,356.3035853599114,321.2430092137553
2026-09-24 20:45:11.027478016,0.335166015625,-0.01675830078125,10.234533691406249,0.006391586616190171,0.28336033998443094,0.08309062601047223,0.150980603115308,356.4719888367984,321.29119759288045
2026-09-24 20:45:11.027478016,0.31840771484374997,0.00718212890625,10.21538134765625,0.010652644360316953,0.2673813734439555,0.07989483270237714,0.15307170555307875,356.6309805531135,321.337502180151
2026-09-24 20:45:11.090441216,0.29446728515625,0.12209619140624998,10.1746826171875,0.011717908796348648,0.24714134915935332,0.07350324608618697,0.15759007461145091,356.77900488011295,321.3809908500986
2026-09-24 20:45:11.090441216,0.23701025390624997,0.22025195312499998,10.229745605468748,0.009587379924285258,0.2258360604387194,0.0681769239060285,0.16267028147027512,356.91485928955706,321.42102424655326
2026-09-24 20:45:11.090441216,0.25137451171874997,0.21067578124999997,10.2417158203125,0.0010652644360316954,0.2034655072820538,0.059654808417774936,0.16512167908200195,357.0387874042583,321.45701828371136
2026-09-24 20:45:11.090441216,0.20588769531249998,0.2537685546875,10.17707666015625,-0.012783173232380343,0.18535601186951497,0.05326322180158476,0.1599563186785816,357.1514266425102,321.488700074722
2026-09-24 20:45:11.090441216,0.17715917968749997,0.26095068359374995,10.196229003906248,-0.029827404208887468,0.16618125202094447,0.04261057744126781,0.14553045763990965,357.2535508053437,321.5148118267393
2026-09-24 20:45:11.090441216,0.201099609375,0.1292783203125,10.19144091796875,-0.04048004856920442,0.14913702104443735,0.03621899082507764,0.12354458517704871,357.34564076725155,321.5363111277446
2026-09-24 20:45:11.090441216,0.22264599609375,0.09815576171875,10.205805175781249,-0.04793689962142629,0.1310275256318985,0.025566346464760685,0.09662399347169469,357.4269641358679,321.55260389279454
2026-09-24 20:45:11.090441216,0.22264599609375,0.11252001953124999,10.20819921875,-0.05539375067364816,0.11398329465539139,0.01384843766841204,0.0651049754959718,357.498488920494,321.5624297097134
2026-09-24 20:45:11.090441216,0.28489111328125,0.0622451171875,10.217775390624999,-0.05326322180158476,0.09800432811491597,0.0031957933080950856,0.03385851512792121,357.560035247378,321.5657956332816
2026-09-24 20:45:11.106241280,0.335166015625,0.0335166015625,10.198623046875,-0.049002164057457984,0.0916127414987258,-0.005326322180158476,0.005085384161064599,357.61619646663803,321.5633486772888
2026-09-24 20:45:11.106241280,0.42374560546874995,0.0143642578125,10.201017089843749,-0.0458063707493629,0.08841694819063071,-0.014913702104443734,359.97814586356156,357.66889285237187,321.5553876932258
2026-09-24 20:45:11.106241280,0.5003549804687499,0.043092773437499995,10.16989453125,-0.04261057744126781,0.08735168375459901,-0.021305288720633905,359.9530165430458,357.7194108206672,321.5431234531501
2026-09-24 20:45:11.106241280,0.48599072265625,-0.00239404296875,10.145954101562499,-0.043675841877299504,0.08948221262666241,-0.025566346464760685,359.92883237972876,357.77043063711477,321.5287013010056
2026-09-24 20:45:11.106241280,0.48838476562499994,0.026334472656249996,10.1938349609375,-0.043675841877299504,0.09374327037078918,-0.02663161090079238,359.90348445526416,357.82382111007723,321.51303121575535
2026-09-24 20:45:11.106241280,0.45486816406249997,-0.01915234375,10.09328515625,-0.039414784133172724,0.10226538585904274,-0.024501082028728992,359.88079072208785,357.8809320073392,321.49824985097655
2026-09-24 20:45:11.106241280,0.4452919921875,0.01915234375,10.10525537109375,-0.044741106313331204,0.10546117916713783,-0.022370553156665602,359.85541463987613,357.94098775094545,321.48436201018876
2026-09-24 20:45:11.106241280,0.5003549804687499,0.026334472656249996,10.16989453125,-0.044741106313331204,0.11078750134729631,-0.01810949541253882,359.8294926032619,358.0034052854413,321.47225682695114
2026-09-24 20:45:11.168747008,0.564994140625,-0.011970214843749999,10.15313623046875,-0.04154531300523612,0.11824435239951818,-0.010652644360316953,359.8054511050537,358.06919040111296,321.4640858135932
2026-09-24 20:45:11.184370944,0.46205029296874994,0.00718212890625,10.16989453125,-0.04261057744126781,0.12996226119586682,-0.0010652644360316954,359.7804275455965,358.1409493765051,321.4610609626151
2026-09-24 20:45:11.184370944,0.43571582031249995,-0.067033203125,10.2034111328125,-0.04154531300523612,0.13954964112015208,0.009587379924285258,359.7561370403347,358.21895272201067,321.464393630522
2026-09-24 20:45:11.293985792,0.43810986328124996,-0.04548681640625,10.124407714843748,-0.03621899082507764,0.14487596330031055,0.025566346464760685,359.733238103676,358.3008749932152,321.47654510204933
2026-09-24 20:45:11.293985792,0.392623046875,-0.0813974609375,10.10525537109375,-0.035153726389045944,0.15339807878856412,0.04048004856920442,359.7112931266187,358.38671932398285,321.4971934517233
2026-09-24 20:45:11.293985792,0.35192431640625,-0.067033203125,10.0884970703125,-0.035153726389045944,0.1629854587128494,0.05326322180158476,359.68871674561603,358.4791080923704,321.525715864855
2026-09-24 20:45:11.357015040,0.28489111328125,-0.0383046875,10.145954101562499,-0.03195793308095086,0.16511598758491278,0.06285060172587002,359.66809154127185,358.5740037248125,321.56029045463265
2026-09-24 20:45:11.357015040,0.17476513671875,-0.09815576171875,10.20819921875,-0.03195793308095086,0.16511598758491278,0.0692421883420602,359.6479211815875,358.66989329097936,321.598789816413
2026-09-24 20:45:11.357015040,0.2154638671875,-0.11730810546874999,10.196229003906248,-0.03195793308095086,0.15446334322459582,0.07456851052221868,359.62763314961603,358.7619861870557,321.6403452331856
2026-09-24 20:45:11.435402496,0.162794921875,-0.0909736328125,10.172288574218749,-0.02876213977285577,0.15020228548046904,0.07776430383031376,359.6081861478553,358.8497947272107,321.6840295490976
2026-09-24 20:45:11.435402496,0.15561279296875,-0.06942724609374999,10.196229003906248,-0.02769687533682408,0.14381069886427886,0.08415589044650393,359.5901737144213,358.93443355523965,321.7307571954011
2026-09-24 20:45:11.435402496,0.11730810546874999,-0.13406640625,10.222563476562499,-0.025566346464760685,0.13954964112015208,0.0916127414987258,359.5728829116877,359.01665691816794,321.78174578554797
2026-09-24 20:45:11.435402496,0.201099609375,-0.12688427734375,10.18665283203125,-0.019174759848570515,0.1374191122480887,0.09906959255094766,359.55842062146087,359.09723839772454,321.8366984674224
2026-09-24 20:45:11.435402496,0.18673535156249998,-0.15561279296875,10.17707666015625,-0.01384843766841204,0.14168016999221547,0.10759170803920122,359.5471179627959,359.17849083852093,321.89650297977306
2026-09-24 20:45:11.435402496,0.13885449218749998,-0.162794921875,10.201017089843749,-0.009587379924285258,0.14061490555618378,0.1129180302193597,359.53820670276826,359.2605610894629,321.9599542598231
2026-09-24 20:45:11.435402496,0.08618554687499999,-0.13406640625,10.162712402343749,-0.004261057744126781,0.136353847812057,0.11611382352745478,359.53255312418105,359.34156225360766,322.02553694864594
2026-09-24 20:45:11.435402496,0.06463916015625,-0.026334472656249996,10.22495751953125,-0.009587379924285258,0.12996226119586682,0.11504855909142309,359.526209725121,359.41900555229205,322.09113391798564
2026-09-24 20:45:11.435402496,0.04548681640625,0.01915234375,10.25847412109375,-0.019174759848570515,0.12889699675983513,0.10972223691126462,359.51607839474275,359.495016648574,322.15428369038904
2026-09-24 20:45:11.435402496,0.0143642578125,0.04069873046875,10.129195800781249,-0.029827404208887468,0.12037488127158157,0.10652644360316953,359.4999401265862,359.5675460230915,322.2153062542589
2026-09-24 20:45:11.451028992,0.05745703125,0.0,10.229745605468748,-0.04154531300523612,0.111852765783328,0.09800432811491597,359.47755135806005,359.63456427064796,322.2720818135597
2026-09-24 20:45:11.451028992,0.07182128906249999,-0.0047880859375,10.2034111328125,-0.05006742849348968,0.10546117916713783,0.08948221262666241,359.44989316712423,359.6968858554372,322.32398697449764
2026-09-24 20:45:11.451028992,-0.00239404296875,0.00718212890625,10.21538134765625,-0.05645901510967985,0.10120012142301105,0.07989483270237714,359.41784531465845,359.7564737753212,322.3706986662873
2026-09-24 20:45:11.451028992,0.0,-0.01915234375,10.11483154296875,-0.05858954398174324,0.09906959255094766,0.07350324608618697,359.38434776081715,359.81506006209594,322.412815232714
2026-09-24 20:45:11.451028992,-0.07182128906249999,-0.04548681640625,10.10525537109375,-0.06285060172587002,0.09587379924285258,0.06498113059793341,359.3492139460186,359.87203175204456,322.45033700068217
2026-09-24 20:45:11.513524480,-0.1149140625,-0.00718212890625,10.150742187499999,-0.06711165946999681,0.09374327037078918,0.05645901510967985,359.3115579559161,359.9284234345661,322.4832610179167
2026-09-24 20:45:11.513524480,-0.17955322265624998,-0.047880859374999994,10.16989453125,-0.07030745277809189,0.08948221262666241,0.04687163518539459,359.2717458989254,359.9831105454789,322.51098321970187
2026-09-24 20:45:11.513524480,-0.162794921875,-0.05266894531249999,10.2417158203125,-0.07563377495825037,0.07456851052221868,0.030892668644919165,359.2288972218089,0.03133523620510331,322.5311313777452
2026-09-24 20:45:11.513524480,-0.258556640625,-0.07182128906249999,10.227351562499999,-0.08415589044650393,0.06285060172587002,0.014913702104443734,359.18198087995125,0.07255571486840205,322.54157645635394
2026-09-24 20:45:11.607179264,-0.17955322265624998,-0.10773193359375,10.21059326171875,-0.08735168375459901,0.043675841877299504,-0.0021305288720633907,359.13217873882996,0.10411174252589397,322.5420671168371
2026-09-24 20:45:11.607179264,-0.19152343749999998,-0.12209619140624998,10.260868164062499,-0.0916127414987258,0.024501082028728992,-0.022370553156665602,359.0792720944845,0.12307690603898414,322.5308124933566
2026-09-24 20:45:11.607179264,-0.15561279296875,-0.17955322265624998,10.251291992187499,-0.0916127414987258,0.011717908796348648,-0.03834951969714103,359.0257430591649,0.13373612541235794,322.51021815207747
2026-09-24 20:45:11.669650944,-0.11252001953124999,-0.1675830078125,10.234533691406249,-0.08948221262666241,0.0021305288720633907,-0.05113269292952137,358.9735195471086,0.13855550027564323,322.4817778201987
2026-09-24 20:45:11.669650944,-0.15082470703124998,-0.15321875,10.20819921875,-0.09587379924285258,0.0,-0.06072007285380663,358.918622468526,0.13970743287461607,322.44759252813583
2026-09-24 20:45:11.669650944,-0.14124853515625,-0.19391748046875,10.189046874999999,-0.09267800593475749,-0.007456851052221867,-0.06711165946999681,358.86473720584405,0.13716713460588142,322.40951868459337
2026-09-24 20:45:11.669650944,-0.17955322265624998,-0.23461621093749999,10.227351562499999,-0.09587379924285258,-0.014913702104443734,-0.07137271721412358,358.8097496476349,0.1302504964326,322.3690929237982
2026-09-24 20:45:11.751838720,-0.2154638671875,-0.2681328125,10.179470703124998,-0.09587379924285258,-0.02769687533682408,-0.07563377495825037,358.75395051006814,0.11783146680371367,322.3257475863497
2026-09-24 20:45:11.751838720,-0.2154638671875,-0.37586474609375,10.229745605468748,-0.08841694819063071,-0.03834951969714103,-0.07989483270237714,358.70086259066665,0.09848079314213247,322.2804352175655
2026-09-24 20:45:11.755164416,-0.13646044921875,-0.34474218749999996,10.301566894531248,-0.08735168375459901,-0.05113269292952137,-0.08309062601047223,358.648805154573,0.07206351847110136,322.2331611739993
2026-09-24 20:45:11.755164416,-0.11012597656249999,-0.430927734375,10.3087490234375,-0.07882956826634545,-0.06178533728983833,-0.08628641931856731,358.6002718422595,0.038785738589434245,322.18422935583527
2026-09-24 20:45:11.755164416,-0.05266894531249999,-0.43571582031249995,10.313537109375,-0.06711165946999681,-0.07350324608618697,-0.08948221262666241,358.55766965511486,359.9979202506891,322.1336765937934
2026-09-24 20:45:11.755164416,0.028728515625,-0.45965625,10.2417158203125,-0.05219795736555307,-0.08096009713840883,-0.08948221262666241,358.5229254539493,359.9525341658589,322.0829575242154
2026-09-24 20:45:11.755164416,0.011970214843749999,-0.4979609375,10.212987304687498,-0.03728425526110934,-0.08628641931856731,-0.08735168375459901,358.4964861414343,359.9026422024702,322.0329703674178
2026-09-24 20:45:11.755164416,0.10533789062499999,-0.46205029296874994,10.22016943359375,-0.025566346464760685,-0.08841694819063071,-0.08309062601047223,358.477868509175,359.85101887341403,321.9857979661749
2026-09-24 20:45:11.755164416,0.09576171874999999,-0.44050390624999997,10.1938349609375,-0.01597896654047543,-0.08841694819063071,-0.07776430383031376,358.4648964847838,359.79882094683387,321.94108192261456
2026-09-24 20:45:11.755164416,0.13885449218749998,-0.42135156249999994,10.196229003906248,-0.010652644360316953,-0.08841694819063071,-0.07243798165015528,358.45577457317495,359.7465352595045,321.89942755625145
2026-09-24 20:45:11.763670272,0.2154638671875,-0.37347070312499997,10.129195800781249,-0.004261057744126781,-0.08415589044650393,-0.06711165946999681,358.4509176943722,359.69557902808674,321.86108594712766
2026-09-24 20:45:11.763670272,0.21785791015624997,-0.34474218749999996,10.2034111328125,-0.0021305288720633907,-0.07776430383031376,-0.059654808417774936,358.4484829333319,359.6480083641067,321.82662039281826
2026-09-24 20:45:11.763670272,0.22025195312499998,-0.37107666015624996,10.21059326171875,-0.0031957933080950856,-0.07243798165015528,-0.05219795736555307,358.4454449735279,359.6032125316872,321.7960407294895
2026-09-24 20:45:11.763670272,0.24179833984375,-0.40698730468749994,10.222563476562499,0.0,-0.0692421883420602,-0.043675841877299504,358.4438818456019,359.56088294371875,321.7699796633993
2026-09-24 20:45:11.763670272,0.296861328125,-0.4165634765625,10.2034111328125,0.007456851052221867,-0.06178533728983833,-0.035153726389045944,358.44636535243905,359.5218649955381,321.7490202392703
2026-09-24 20:45:11.763670272,0.24419238281249997,-0.35910644531249997,10.14356005859375,0.01597896654047543,-0.05858954398174324,-0.025566346464760685,358.45419704241976,359.48517040068947,321.7334821164338
2026-09-24 20:45:11.763670272,0.3112255859375,-0.33756005859375,10.107649414062498,0.021305288720633905,-0.05645901510967985,-0.01597896654047543,358.4656088003543,359.4501521422008,321.72308983515256
2026-09-24 20:45:11.763670272,0.3208017578125,-0.26573876953125,10.11004345703125,0.021305288720633905,-0.05113269292952137,-0.006391586616190171,358.47880579800216,359.4172131423876,321.71841647032943
2026-09-24 20:45:11.841798656,0.35431835937499995,-0.258556640625,10.1363779296875,0.017044230976507126,-0.04687163518539459,0.0010652644360316954,358.4899947713856,359.38668900045633,321.71854844926264
2026-09-24 20:45:11.841798656,0.3495302734375,-0.30883154296875,10.18186474609375,0.01384843766841204,-0.04048004856920442,0.008522115488253563,358.4988174966276,359.3592218991307,321.7225604354494
2026-09-24 20:45:11.841798656,0.36150048828125,-0.33756005859375,10.21059326171875,0.01810949541253882,-0.035153726389045944,0.01384843766841204,358.50858389003037,359.33560134210074,321.73044854813793
2026-09-24 20:45:11.841798656,0.33756005859375,-0.37586474609375,10.22495751953125,0.025566346464760685,-0.030892668644919165,0.02024002428460221,358.5216838167956,359.31503796065886,321.7419180961902
2026-09-24 20:45:12.014355712,0.32798388671874995,-0.34474218749999996,10.256080078124999,0.03621899082507764,-0.022370553156665602,0.02769687533682408,358.5400855171493,359.2984087240988,321.7572570494017
2026-09-24 20:45:12.014355712,0.33277197265624997,-0.32319580078125,10.141166015624998,0.04687163518539459,-0.012783173232380343,0.03834951969714103,358.5648343451942,359.2870572809558,321.7776427962996
2026-09-24 20:45:12.092478976,0.28010302734375,-0.23701025390624997,10.11961962890625,0.05539375067364816,-0.0021305288720633907,0.049002164057457984,358.5956795275165,359.2825358044787,321.8042718166802
2026-09-24 20:45:12.108104192,0.20349365234374997,-0.15561279296875,10.117225585937499,0.04793689962142629,0.0,0.05539375067364816,358.62493161277206,359.28162413694815,321.8353982149492
2026-09-24 20:45:12.108104192,0.21306982421874998,-0.1484306640625,10.138771972656249,0.03621899082507764,0.0,0.06285060172587002,358.64850831551706,359.28159918861405,321.8707793646943
2026-09-24 20:45:12.123728640,0.1963115234375,-0.19152343749999998,10.1938349609375,0.01384843766841204,-0.0021305288720633907,0.0681769239060285,358.6775442773775,359.279993199225,321.94739449145493
2026-09-24 20:45:12.123728640,0.162794921875,-0.24898046875,10.201017089843749,0.010652644360316953,-0.010652644360316953,0.0660463950339651,358.68433659051243,359.27502437904565,321.98595426361356
2026-09-24 20:45:12.123728640,0.18673535156249998,-0.32798388671874995,10.2417158203125,0.012783173232380343,-0.014913702104443734,0.06285060172587002,358.690960286753,359.26766576708667,322.02306098641264
2026-09-24 20:45:12.123728640,0.16997705078124997,-0.37347070312499997,10.205805175781249,0.02024002428460221,-0.017044230976507126,0.06391586616190172,358.69973909713076,359.25836501253633,322.0599150568323
2026-09-24 20:45:12.123728640,0.15082470703124998,-0.34234814453124995,10.201017089843749,0.03621899082507764,-0.021305288720633905,0.06285060172587002,358.71685475576,359.2468980431103,322.0962079423295
2026-09-24 20:45:12.123728640,0.11252001953124999,-0.201099609375,10.22495751953125,0.0458063707493629,-0.03408846195301425,0.06391586616190172,358.7414589557468,359.2291798425635,322.13324313275143
2026-09-24 20:45:12.139354112,0.08379150390625,-0.11970214843749999,10.189046874999999,0.04261057744126781,-0.04793689962142629,0.06285060172587002,358.7678830387399,359.2051737954447,322.1700976010409
2026-09-24 20:45:12.178727424,0.11730810546874999,-0.026334472656249996,10.2321396484375,0.022370553156665602,-0.06285060172587002,0.05858954398174324,358.78552725715133,359.1723489840568,322.2043758538648
2026-09-24 20:45:12.178727424,0.06942724609374999,-0.0622451171875,10.22016943359375,-0.0010652644360316954,-0.08628641931856731,0.05752427954571154,358.78967187420756,359.1282964746349,322.2385681990708
2026-09-24 20:45:12.178727424,0.1484306640625,-0.07182128906249999,10.196229003906248,-0.02876213977285577,-0.10226538585904274,0.05752427954571154,358.77819088027,359.0730861871472,322.27208699840304
2026-09-24 20:45:12.178727424,0.1149140625,-0.181947265625,10.217775390624999,-0.04687163518539459,-0.12250541014364495,0.05645901510967985,358.7543104431707,359.00798024404787,322.3064437512212
2026-09-24 20:45:12.178727424,0.11970214843749999,-0.17476513671875,10.1651064453125,-0.05006742849348968,-0.12250541014364495,0.06072007285380663,358.7252567229419,358.93817429611073,322.3415623667421
2026-09-24 20:45:12.249064448,0.07182128906249999,-0.1675830078125,10.13158984375,-0.03728425526110934,-0.11930961683554987,0.07137271721412358,358.7006498276253,358.8717994389092,322.38245616152574
2026-09-24 20:45:12.249064448,0.1005498046875,-0.21785791015624997,10.1746826171875,-0.022370553156665602,-0.12570120345174005,0.08309062601047223,358.6846695615509,358.8040741825325,322.43013038866474
2026-09-24 20:45:12.295973376,0.15321875,-0.35192431640625,10.157924316406248,-0.009587379924285258,-0.13422331893999362,0.08948221262666241,358.6753992850332,358.73073152704825,322.4822357593893
2026-09-24 20:45:12.295973376,0.19152343749999998,-0.42374560546874995,10.17707666015625,0.006391586616190171,-0.1331580545039619,0.09906959255094766,358.6738915851205,358.65554924990204,322.53960082180333
2026-09-24 20:45:12.295973376,0.31361962890624995,-0.39022900390625,10.196229003906248,0.03621899082507764,-0.12570120345174005,0.10120012142301105,358.6875076552125,358.58407709115426,322.5993268547002
2026-09-24 20:45:12.295973376,0.23222216796874998,-0.35192431640625,10.145954101562499,0.06391586616190172,-0.11824435239951818,0.09693906367888427,358.71796630882983,358.51642111034226,322.65738300831873
2026-09-24 20:45:12.295973376,0.20588769531249998,-0.27052685546875,10.141166015624998,0.07137271721412358,-0.12250541014364495,0.08628641931856731,358.7568429362698,358.4482169469534,322.71022086574305
2026-09-24 20:45:12.343269120,0.26334472656249996,-0.26573876953125,10.11961962890625,0.07137271721412358,-0.1320927900679302,0.07456851052221868,358.79634123146576,358.37496688323034,322.7563972256306
2026-09-24 20:45:12.358900224,0.27531494140624996,-0.36628857421875,10.17707666015625,0.07030745277809189,-0.14274543442824716,0.06072007285380663,358.8363106197535,358.2959209458162,322.7947019156651
2026-09-24 20:45:12.358900224,0.32319580078125,-0.4835966796875,10.2321396484375,0.06711165946999681,-0.1565938720966592,0.044741106313331204,358.87276433570804,358.20872099793644,322.82461533277035
2026-09-24 20:45:12.358900224,0.3112255859375,-0.46205029296874994,10.260868164062499,0.07776430383031376,-0.17257283863713463,0.02663161090079238,358.9124199978821,358.112592124531,322.84427957583733
2026-09-24 20:45:12.358900224,0.34713623046875,-0.4165634765625,10.339871582031249,0.09480853480682087,-0.18855180517761005,0.006391586616190171,358.96240211391773,358.0064860508957,322.85337293035474
2026-09-24 20:45:12.358900224,0.42374560546874995,-0.32319580078125,10.366206054687499,0.10865697247523291,-0.2024002428460221,-0.01384843766841204,359.02163130388493,357.89141199355646,322.85028796074994
2026-09-24 20:45:12.358900224,0.49077880859374995,-0.296861328125,10.212987304687498,0.12250541014364495,-0.2077265650261806,-0.02876213977285577,359.09061024069047,357.7718141971499,322.8379467900951
2026-09-24 20:45:12.358900224,0.622451171875,-0.38544091796874996,10.344659667968749,0.1129180302193597,-0.21198762277030736,-0.044741106313331204,359.1580088762517,357.64923547477184,322.81665123708683
2026-09-24 20:45:12.358900224,0.6918784179687499,-0.42613964843749996,10.2991728515625,0.11398329465539139,-0.2024002428460221,-0.06072007285380663,359.2219774610579,357.5284866123847,322.7851388819889
2026-09-24 20:45:12.358900224,0.70145458984375,-0.38544091796874996,10.284808593749998,0.14807175660840563,-0.1821602185614199,-0.07669903939428206,359.30138721542795,357.4174613573848,322.74480421824063
2026-09-24 20:45:12.358900224,0.67272607421875,-0.21306982421874998,10.29199072265625,0.1565938720966592,-0.16831178089300786,-0.09587379924285258,359.3914110550662,357.3158920896219,322.693500435741
2026-09-24 20:45:12.358900224,0.6176630859375,-0.11012597656249999,10.227351562499999,0.1555286076606275,-0.16831178089300786,-0.12357067457967666,359.483512605283,357.216611860309,322.6272818302287
2026-09-24 20:45:12.358900224,0.7134248046874999,-0.11730810546874999,10.251291992187499,0.15126754991650074,-0.17044230976507124,-0.15020228548046904,359.5754866350496,357.1162777780054,322.5453084309151
2026-09-24 20:45:12.358900224,0.78285205078125,-0.08379150390625,10.22016943359375,0.14168016999221547,-0.16831178089300786,-0.17789916081729312,359.66270041253796,357.01542082462953,322.4475840594878
2026-09-24 20:45:12.358900224,0.7636997070312499,-0.07182128906249999,10.2417158203125,0.13422331893999362,-0.1555286076606275,-0.19920444953792701,359.7462917458602,356.92071962852543,322.3362223810576
2026-09-24 20:45:12.358900224,0.7230009765625,-0.059851074218749994,10.2321396484375,0.1310275256318985,-0.15020228548046904,-0.21837920938649752,359.82817529656313,356.8302204695829,322.21338461908874
2026-09-24 20:45:12.358900224,0.7996103515624999,-0.0143642578125,10.157924316406248,0.12996226119586682,-0.15126754991650074,-0.23435817592697297,359.91068540240326,356.74049649379333,322.0806347823589
2026-09-24 20:45:12.374525184,0.81158056640625,0.01915234375,10.16989453125,0.1352885833760253,-0.14061490555618378,-0.2492718780314167,359.99632327674055,356.65484481043677,321.939166732198
2026-09-24 20:45:12.374525184,0.7996103515624999,0.07182128906249999,10.04301025390625,0.13422331893999362,-0.1352885833760253,-0.262055051263797,0.08299925475459058,356.57416020529854,321.7899171354344
2026-09-24 20:45:12.421397760,0.7708818359374999,0.07421533203125,10.03822216796875,0.12250541014364495,-0.12889699675983513,-0.2737729600601457,0.16535375797417562,356.4973075750079,321.6334827204087
2026-09-24 20:45:12.421397760,0.833126953125,0.01915234375,9.961612792968749,0.11504855909142309,-0.12676646788777174,-0.28122981111236756,0.24238291107417545,356.4225291952926,321.4714566324389
2026-09-24 20:45:12.421397760,0.8786137695312499,-0.0047880859375,10.0693447265625,0.1129180302193597,-0.12037488127158157,-0.28336033998443094,0.31766831150468144,356.35093754501315,321.3081631661482
2026-09-24 20:45:12.541791488,0.8427031249999999,0.0047880859375,10.019069824218748,0.12357067457967666,-0.1129180302193597,-0.28122981111236756,0.3968186585998631,356.2843052985764,321.1451186913527
2026-09-24 20:45:12.541791488,0.8498852539062499,0.05745703125,10.066950683593749,0.1352885833760253,-0.10013485698697935,-0.27590348893220906,0.48368774011671434,356.2237959659135,320.98476153460416
2026-09-24 20:45:12.593346048,0.8091865234375,0.10294384765624999,10.1268017578125,0.14274543442824716,-0.08735168375459901,-0.2673813734439555,0.5754254632625616,356.17131980661287,320.82893271526217
2026-09-24 20:45:12.593346048,0.7660937499999999,0.19391748046875,10.090891113281248,0.14168016999221547,-0.07669903939428206,-0.26098978682776536,0.6690867643764449,356.1260925551544,320.67732746700415
2026-09-24 20:45:12.593346048,0.6846962890624999,0.31361962890624995,10.15313623046875,0.12889699675983513,-0.07137271721412358,-0.25246767133951176,0.7579464398567266,356.0857911124098,320.5305289723071
2026-09-24 20:45:12.593346048,0.67033203125,0.40459326171875,10.133983886718749,0.09800432811491597,-0.07989483270237714,-0.24181502697919482,0.8318234623236721,356.0440791930773,320.389058310449
2026-09-24 20:45:12.593346048,0.67272607421875,0.39501708984374995,10.14834814453125,0.07350324608618697,-0.08948221262666241,-0.23435817592697297,0.8909418435633795,355.99642453054514,320.2516735061257
2026-09-24 20:45:12.593346048,0.7948222656249999,0.40459326171875,10.13158984375,0.05113269292952137,-0.09480853480682087,-0.2258360604387194,0.9360852614463198,355.94449197305266,320.11908811669196
2026-09-24 20:45:12.593346048,0.7924282226562499,0.46923242187499997,10.102861328125,0.03195793308095086,-0.09693906367888427,-0.20985709389824397,0.9691909672759527,355.8901048236423,319.99437952602335
2026-09-24 20:45:12.593346048,0.7613056640624999,0.46444433593749995,10.160318359375,0.010652644360316953,-0.10120012142301105,-0.19068233404967347,0.9907891974732247,355.8339836403253,319.8802839138944
2026-09-24 20:45:12.608972800,0.8163686523437499,0.45247412109374996,10.189046874999999,-0.010652644360316953,-0.10333065029507445,-0.16618125202094447,0.9979827314623992,355.776000000278,319.77957896767253
2026-09-24 20:45:12.608972800,0.8834018554687499,0.36150048828125,10.18665283203125,-0.02663161090079238,-0.09587379924285258,-0.1352885833760253,0.9933358647372393,355.7208130291166,319.69546807914764
2026-09-24 20:45:12.608972800,0.9097363281249999,0.24898046875,10.13158984375,-0.029827404208887468,-0.08202536157444054,-0.10546117916713783,0.9824547438001383,355.6714628656782,319.6287322720656
2026-09-24 20:45:12.608972800,0.8738256835937499,0.21306982421874998,10.0884970703125,-0.01810949541253882,-0.06285060172587002,-0.07882956826634545,0.9737933039867626,355.63222190040375,319.5784665825711
2026-09-24 20:45:12.608972800,0.83552099609375,0.2824970703125,10.13158984375,-0.004261057744126781,-0.049002164057457984,-0.05752427954571154,0.9726579667812658,355.6025108242465,319.54149573559954
2026-09-24 20:45:12.608972800,0.7445473632812499,0.3878349609375,10.102861328125,0.0,-0.0458063707493629,-0.03621899082507764,0.9756397799498405,355.57646580309216,319.5164525237692
2026-09-24 20:45:12.624597504,0.7517294921875,0.42853369140625,10.050192382812499,-0.010652644360316953,-0.05006742849348968,-0.02024002428460221,0.9747198696554289,355.5493361752513,319.5013927121582
2026-09-24 20:45:12.655844096,0.7038486328125,0.41177539062499996,10.102861328125,-0.03195793308095086,-0.05539375067364816,-0.004261057744126781,0.9623345264387245,355.51915791165766,319.49547551466446
2026-09-24 20:45:12.655844096,0.75412353515625,0.335166015625,10.25847412109375,-0.05219795736555307,-0.06072007285380663,0.006391586616190171,0.9368733230906953,355.48613422012386,319.49688540319016
2026-09-24 20:45:12.655844096,0.7684877929687499,0.09815576171875,10.138771972656249,-0.06285060172587002,-0.06178533728983833,0.014913702104443734,0.9018756278584804,355.4513338092431,319.5038888846965
2026-09-24 20:45:12.738676480,0.7421533203124999,-0.035910644531249994,10.09328515625,-0.05645901510967985,-0.059654808417774936,0.019174759848570515,0.8653743013817122,355.41786893717045,319.5138625835641
2026-09-24 20:45:12.784141056,0.7517294921875,-0.11970214843749999,10.2034111328125,-0.03621899082507764,-0.06391586616190172,0.01597896654047543,0.837764468876765,355.38229883113723,319.52331058623554
2026-09-24 20:45:12.784141056,0.7876401367187499,-0.1005498046875,10.184258789062499,-0.008522115488253563,-0.0692421883420602,0.007456851052221867,0.8252103112564383,355.3444552053962,319.5284959389138
2026-09-24 20:45:12.784141056,0.8450971679687499,-0.035910644531249994,10.217775390624999,0.014913702104443734,-0.07137271721412358,0.0,0.8286428751513293,355.30383162975426,319.5290297895095
2026-09-24 20:45:12.784141056,0.8977661132812499,0.11730810546874999,10.155530273437499,0.029827404208887468,-0.07030745277809189,-0.006391586616190171,0.8440065312524825,355.2628580278155,319.5251733362266
2026-09-24 20:45:12.838795520,0.8666435546874999,0.17955322265624998,10.0884970703125,0.02663161090079238,-0.0692421883420602,-0.014913702104443734,0.860995163115186,355.2220326297725,319.5160065530544
2026-09-24 20:45:12.847300608,0.9049482421874999,0.19391748046875,10.07652685546875,0.01384843766841204,-0.0692421883420602,-0.023435817592697295,0.8730516623224219,355.1819307244188,319.5025043959497
2026-09-24 20:45:12.847300608,0.890583984375,0.1963115234375,10.167500488281249,0.0,-0.06391586616190172,-0.03302319751698255,0.8768404366764735,355.143491777376,319.48381108855295
2026-09-24 20:45:12.847300608,0.8259448242187499,0.1005498046875,10.122013671875,0.0,-0.0692421883420602,-0.043675841877299504,0.8795844359394404,355.1047616232864,319.45931440386437
2026-09-24 20:45:12.847300608,0.8474912109374999,0.07421533203125,10.11483154296875,0.0010652644360316954,-0.07776430383031376,-0.05539375067364816,0.8828964708432265,355.0623075249835,319.4280867684891
2026-09-24 20:45:12.847300608,0.890583984375,0.0622451171875,10.19144091796875,0.0031957933080950856,-0.08202536157444054,-0.0660463950339651,0.8873031240017905,355.0162205678873,319.39007080753277
2026-09-24 20:45:12.847300608,0.9288886718749999,0.0813974609375,10.227351562499999,0.011717908796348648,-0.08309062601047223,-0.07776430383031376,0.8967431823437013,354.9683547699936,319.3456032161114
2026-09-24 20:45:12.847300608,0.9887397460937499,0.11730810546874999,10.129195800781249,0.022370553156665602,-0.07989483270237714,-0.08415589044650393,0.9126097024886379,354.92219762935173,319.2968490236769
2026-09-24 20:45:12.847300608,1.0007099609374999,0.22504003906249997,10.162712402343749,0.025566346464760685,-0.07563377495825037,-0.08415589044650393,0.9325188206634224,354.8773528171555,319.2468018599695
2026-09-24 20:45:12.847300608,0.9815576171874999,0.2824970703125,10.112437499999999,0.01810949541253882,-0.07137271721412358,-0.08096009713840883,0.9507108030725855,354.8352572824787,319.1982394774295
2026-09-24 20:45:12.847300608,0.9504350585937499,0.32558984375,10.10525537109375,0.0021305288720633907,-0.07243798165015528,-0.07350324608618697,0.9613322588898869,354.79382965276125,319.15362123075516
